angular_velocity_x,angular_velocity_y,angular_velocity_z,linear_acceleration_x,linear_acceleration_y,linear_acceleration_z,fake_gyro_bias_x,fake_gyro_bias_y,fake_gyro_bias_z,fake_acc_bias_x,fake_acc_bias_y,fake_acc_bias_z,fake_gyro_noise_x,gyro_noise_y,gyro_noise_z,fake_acc_noise_x,fake_acc_noise_y,fake_acc_noise_z
-0.02652900463031381,0.028623399732707,0.08098327729253688,9.349006333333334,-0.008172208333333333,-2.9174783749999995,-0.0013834804859237432,0.025747600627153127,0.07890034845143891,0.004185242275505535,0.03460894689811395,0.09561179095447825,0.0,0.0,0.0,0.0,0.0,0.0
-0.02024581932313422,0.014660765716752367,0.08936085770210968,9.193734375,-0.220649625,-2.7948952499999997,-0.0013834804859237432,0.025747600627153127,0.07890034845143891,0.004185242275505535,0.03460894689811395,0.09561179095447825,0.0,0.0,0.0,0.0,0.0,0.0
-0.003490658503988659,0.020943951023931952,0.09005898940290741,9.520622708333333,-0.367749375,-3.0972669583333334,-0.0013834804859237432,0.025747600627153127,0.07890034845143891,0.004185242275505535,0.03460894689811395,0.09561179095447825,0.0,0.0,0.0,0.0,0.0,0.0
0.013264502315156905,0.032812189937493394,0.08517206749732328,9.136528916666666,-0.367749375,-2.8684451249999996,-0.0013834804859237432,0.025747600627153127,0.07890034845143891,0.004185242275505535,0.03460894689811395,0.09561179095447825,0.0,0.0,0.0,0.0,0.0,0.0
0.02024581932313422,0.023736477827122883,0.0747000919853573,9.398039583333333,-0.32688833333333334,-2.7703786249999998,-0.0013834804859237432,0.025747600627153127,0.07890034845143891,0.004185242275505535,0.03460894689811395,0.09561179095447825,0.0,0.0,0.0,0.0,0.0,0.0
0.02652900463031381,0.014660765716752367,0.0747000919853573,9.144701125,-0.14709974999999997,-2.8847895416666667,-0.0013834804859237432,0.025747600627153127,0.07890034845143891,0.004185242275505535,0.03460894689811395,0.09561179095447825,0.0,0.0,0.0,0.0,0.0,0.0
0.016057029118347832,0.010471975511965976,0.07819075048934597,9.26728425,0.35140495833333335,-3.1544724166666662,-0.0013834804859237432,0.025747600627153127,0.07890034845143891,0.004185242275505535,0.03460894689811395,0.09561179095447825,0.0,0.0,0.0,0.0,0.0,0.0
-0.006981317007977318,0.032812189937493394,0.08517206749732328,9.201906583333333,0.48216029166666663,-2.8929617499999996,-0.0013834804859237432,0.025747600627153127,0.07890034845143891,0.004185242275505535,0.03460894689811395,0.09561179095447825,0.0,0.0,0.0,0.0,0.0,0.0
-0.0307177948351002,0.01884955592153876,0.0767944870877505,9.46341725,0.122583125,-2.982856041666666,-0.0013834804859237432,0.025747600627153127,0.07890034845143891,0.004185242275505535,0.03460894689811395,0.09561179095447825,0.0,0.0,0.0,0.0,0.0,0.0
-0.030019663134302467,0.02024581932313422,0.07888888219014369,9.275456458333332,-0.32688833333333334,-2.9256505833333333,-0.0013834804859237432,0.025747600627153127,0.07890034845143891,0.004185242275505535,0.03460894689811395,0.09561179095447825,0.0,0.0,0.0,0.0,0.0,0.0
-0.016755160819145562,0.011868238913561441,0.07120943348136866,9.250939833333334,-0.34323275000000003,-3.0400614999999998,-0.0013834804859237432,0.025747600627153127,0.07890034845143891,0.004185242275505535,0.03460894689811395,0.09561179095447825,0.0,0.0,0.0,0.0,0.0,0.0
0.0013962634015954637,0.03420845333908886,0.07539822368615504,9.340834124999999,-0.367749375,-2.8847895416666667,-0.0013834804859237432,0.025747600627153127,0.07890034845143891,0.004185242275505535,0.03460894689811395,0.09561179095447825,0.0,0.0,0.0,0.0,0.0,0.0
0.010471975511965976,0.014660765716752367,0.07539822368615504,9.455245041666666,-0.367749375,-3.0564059166666664,-0.0013834804859237432,0.025747600627153127,0.07890034845143891,0.004185242275505535,0.03460894689811395,0.09561179095447825,0.0,0.0,0.0,0.0,0.0,0.0
0.023038346126325153,0.025132741228718346,0.07120943348136866,9.5124505,-0.2533384583333333,-2.9256505833333333,-0.0013834804859237432,0.025747600627153127,0.07890034845143891,0.004185242275505535,0.03460894689811395,0.09561179095447825,0.0,0.0,0.0,0.0,0.0,0.0
0.021642082724729686,0.010471975511965976,0.07330382858376185,9.1201845,0.16344416666666667,-2.99102825,-0.0013834804859237432,0.025747600627153127,0.07890034845143891,0.004185242275505535,0.03460894689811395,0.09561179095447825,0.0,0.0,0.0,0.0,0.0,0.0
0.009773843811168246,0.03490658503988659,0.0879645943005142,9.586000375,0.4985047083333333,-3.0400614999999998,-0.0013834804859237432,0.025747600627153127,0.07890034845143891,0.004185242275505535,0.03460894689811395,0.09561179095447825,0.0,0.0,0.0,0.0,0.0,0.0
-0.02234021442552742,0.023736477827122883,0.09005898940290741,9.210078791666666,0.2860272916666666,-2.99102825,-0.0013834804859237432,0.025747600627153127,0.07890034845143891,0.004185242275505535,0.03460894689811395,0.09561179095447825,0.0,0.0,0.0,0.0,0.0,0.0
-0.0307177948351002,0.01884955592153876,0.0879645943005142,9.553311541666666,-0.15527195833333335,-2.99102825,-0.0013834804859237432,0.025747600627153127,0.07890034845143891,0.004185242275505535,0.03460894689811395,0.09561179095447825,0.0,0.0,0.0,0.0,0.0,0.0
-0.021642082724729686,0.02583087292951608,0.08517206749732328,9.1201845,-0.3023717083333333,-2.966511625,-0.0013834804859237432,0.025747600627153127,0.07890034845143891,0.004185242275505535,0.03460894689811395,0.09561179095447825,0.0,0.0,0.0,0.0,0.0,0.0
-0.009075712110370514,0.02234021442552742,0.09354964790689606,9.643205833333333,-0.3105439166666667,-3.138128,-0.0013834804859237432,0.025747600627153127,0.07890034845143891,0.004185242275505535,0.03460894689811395,0.09561179095447825,0.0,0.0,0.0,0.0,0.0,0.0
0.008377580409572781,0.023736477827122883,0.08028514559173915,9.112012291666666,-0.43312704166666666,-2.8439284999999996,-0.0013834804859237432,0.025747600627153127,0.07890034845143891,0.004185242275505535,0.03460894689811395,0.09561179095447825,-0.008448610617471404,0.0031773328757964928,0.00027012404873596687,-0.23550273062158225,-0.02691771028489933,0.0717293944774892
0.02583087292951608,0.017453292519943295,0.07958701389094143,9.577828166666666,-0.3759215833333333,-2.999200458333333,-0.0013834804859237432,0.025747600627153127,0.07890034845143891,0.004185242275505535,0.03460894689811395,0.09561179095447825,-0.0012238858428291037,-0.009271265059717967,0.005633141282717678,0.2138724342297377,-0.16968876684131265,-0.05477425258479082
0.028623399732707,0.03630284844148206,0.06841690667817772,9.144701125,-0.032688833333333334,-2.9011339583333333,-0.0013834804859237432,0.025747600627153127,0.07890034845143891,0.004185242275505535,0.03460894689811395,0.09561179095447825,0.005600298830086655,0.007973378751915396,-0.010966751389568067,-0.17009070306431986,-0.2801339320523425,0.05120318807316298
0.016755160819145562,0.02024581932313422,0.09005898940290741,9.479761666666667,0.5311935416666667,-3.015544875,-0.0013834804859237432,0.025747600627153127,0.07890034845143891,0.004185242275505535,0.03460894689811395,0.09561179095447825,0.01608695945277162,-0.00938061863606625,0.005302878821409289,0.042332592302049485,0.1121684739448715,0.027045280024904906
-0.0153588974175501,0.039095375244672985,0.07958701389094143,9.389867375,0.3105439166666667,-3.0809225416666663,-0.0013834804859237432,0.025747600627153127,0.07890034845143891,0.004185242275505535,0.03460894689811395,0.09561179095447825,0.008172450721673996,0.006220802063260664,0.003270103337875716,0.07103723618358374,0.10841846179255653,-0.046650366627422175
-0.031415926535897934,0.02722713633111154,0.07330382858376185,9.242767624999999,0.0980665,-2.999200458333333,-0.0013834804859237432,0.025747600627153127,0.07890034845143891,0.004185242275505535,0.03460894689811395,0.09561179095447825,-0.0029549342341759536,-0.0022330926124722885,-0.004452496918192227,0.07100264378083497,0.19015631078363815,0.018683241539470825
-0.02583087292951608,0.031415926535897934,0.08168140899333462,9.095667875,-0.2778550833333333,-3.0482337083333335,-0.0013834804859237432,0.025747600627153127,0.07890034845143891,0.004185242275505535,0.03460894689811395,0.09561179095447825,-0.005814191022015101,0.005596262035021469,0.0010857306245744408,-0.10469393769143225,-0.02243123292650065,-0.013956018068437206
-0.013962634015954637,0.020943951023931952,0.07958701389094143,9.299973083333333,-0.22882183333333334,-3.0318892916666664,-0.0013834804859237432,0.025747600627153127,0.07890034845143891,0.004185242275505535,0.03460894689811395,0.09561179095447825,-0.00849346717136398,-0.009715548504563675,-0.0006331577950384845,0.0382044208631843,0.10822151176449406,-0.1037933162100587
0.0027925268031909274,0.04049163864626844,0.08098327729253688,9.218250999999999,-0.44129925,-2.8357562916666668,-0.0013834804859237432,0.025747600627153127,0.07890034845143891,0.004185242275505535,0.03460894689811395,0.09561179095447825,-0.004535522021330374,0.010683035738361124,0.0012563366344083954,-0.055784763011038394,-0.0022308121471053,0.010512875790285533
0.012566370614359173,0.01884955592153876,0.07819075048934597,9.324489708333333,-0.43312704166666666,-2.8684451249999996,-0.0013834804859237432,0.025747600627153127,0.07890034845143891,0.004185242275505535,0.03460894689811395,0.09561179095447825,-0.0072502400563169145,-0.007068870378474504,0.0010992306466454558,-0.08163038571898376,-0.11256673976183808,-0.40102987616061697
0.0307177948351002,0.027925268031909273,0.07330382858376185,9.26728425,-0.14709974999999997,-2.8766173333333334,-0.0013834804859237432,0.025747600627153127,0.07890034845143891,0.004185242275505535,0.03460894689811395,0.09561179095447825,0.006420817264773978,0.009513966521714637,-0.0013506957206293854,0.06693838132446998,-0.28822041364285245,0.06345307004506621
0.01815142422074103,0.009075712110370514,0.07609635538695278,9.128356708333332,0.43312704166666666,-3.015544875,-0.0013834804859237432,0.025747600627153127,0.07890034845143891,0.004185242275505535,0.03460894689811395,0.09561179095447825,0.009472068021707,-0.011636146522044836,-0.006874951538448548,-0.18662637259358897,-0.03503220067365834,-0.018293303157227773
-0.0006981317007977319,0.032812189937493394,0.08936085770210968,9.496106083333332,0.5066769166666666,-2.99102825,-0.0013834804859237432,0.025747600627153127,0.07890034845143891,0.004185242275505535,0.03460894689811395,0.09561179095447825,0.015275802261890245,0.008287623508462365,0.004758310312060654,0.07098988079146801,0.1777252806668377,0.03092553170204862
-0.031415926535897934,0.016057029118347832,0.07958701389094143,9.349006333333334,0.15527195833333335,-3.0645781249999997,-0.0013834804859237432,0.025747600627153127,0.07890034845143891,0.004185242275505535,0.03460894689811395,0.09561179095447825,-0.00022067466937172195,-0.0020390827494501866,-0.0009681856731967894,-0.01914229854678472,0.11653429537839562,-0.03470753187571703
-0.0307177948351002,0.02024581932313422,0.08237954069413235,9.381695166666667,-0.07354987499999999,-3.0073726666666665,-0.0013834804859237432,0.025747600627153127,0.07890034845143891,0.004185242275505535,0.03460894689811395,0.09561179095447825,-0.002896579320909972,0.00703278374323143,0.0021781008359766643,0.009694432533866142,0.1575220228761881,-0.03467681140349899
-0.025132741228718346,0.006283185307179587,0.07749261878854824,9.357178541666666,-0.3840937916666667,-2.9501672083333332,-0.0013834804859237432,0.025747600627153127,0.07890034845143891,0.004185242275505535,0.03460894689811395,0.09561179095447825,-0.010035587844329747,-0.0075653019327814675,-0.0036082716517664547,-0.16611491086639912,-0.030750439572243316,0.05494263038733701
-0.004886921905584123,0.021642082724729686,0.08447393579652555,9.684066875,-0.318716125,-3.0727503333333335,-0.0013834804859237432,0.025747600627153127,0.07890034845143891,0.004185242275505535,0.03460894689811395,0.09561179095447825,-0.005068748752042829,0.0012413477922477447,0.0027731234204449837,0.2301107815955545,0.07560161513828897,-0.12442881796584161
0.004886921905584123,0.01884955592153876,0.07888888219014369,9.218250999999999,-0.465815875,-2.8357562916666668,-0.0013834804859237432,0.025747600627153127,0.07890034845143891,0.004185242275505535,0.03460894689811395,0.09561179095447825,-0.010463566377576524,0.002103405522688053,0.002818696935976033,-0.17408715962169985,-0.022757070469371102,0.06758549837887792
0.02652900463031381,0.0153588974175501,0.07330382858376185,9.561483749999999,-0.416782625,-2.982856041666666,-0.0013834804859237432,0.025747600627153127,0.07890034845143891,0.004185242275505535,0.03460894689811395,0.09561179095447825,-0.0018983852851215245,-0.0035299663544045203,0.0015917079738738292,0.14426861649631953,-0.21872420113550756,-0.006061444481018821
0.030019663134302467,0.02234021442552742,0.07051130178057091,9.26728425,0.024516625,-2.982856041666666,-0.0013834804859237432,0.025747600627153127,0.07890034845143891,0.004185242275505535,0.03460894689811395,0.09561179095447825,0.008054088042985555,0.004819467490654786,-0.011394216374152142,-0.28764267576130564,-0.1557318433657048,-0.5365868576592044
0.01815142422074103,0.006981317007977318,0.09075712110370514,9.528794916666666,0.4739880833333333,-3.178989041666666,-0.0013834804859237432,0.025747600627153127,0.07890034845143891,0.004185242275505535,0.03460894689811395,0.09561179095447825,0.012385577970727268,-0.01533258414727278,0.0025284717409936332,0.0832955113936661,0.08346183358720115,-0.09576725603542631
-0.006981317007977318,0.03769911184307752,0.08517206749732328,9.357178541666666,0.3105439166666667,-2.999200458333333,-0.0013834804859237432,0.025747600627153127,0.07890034845143891,0.004185242275505535,0.03460894689811395,0.09561179095447825,0.012207801243168389,0.010318151351262813,0.0010300566227828354,0.02178002883872845,0.15729268917311448,0.022748605083993425
-0.0307177948351002,0.017453292519943295,0.08307767239493008,9.308145291666667,0.0,-3.0564059166666664,-0.0013834804859237432,0.025747600627153127,0.07890034845143891,0.004185242275505535,0.03460894689811395,0.09561179095447825,-0.0018406116576853248,-0.0050445855769824365,0.0004418791845342665,0.03838494052114739,0.07153695889763853,-0.018240037205716233
-0.02722713633111154,0.027925268031909273,0.08237954069413235,9.226423208333333,-0.13892754166666665,-3.0318892916666664,-0.0013834804859237432,0.025747600627153127,0.07890034845143891,0.004185242275505535,0.03460894689811395,0.09561179095447825,-0.0075265530789870964,0.006797813002930858,-0.004052555902070855,-0.03132833930851025,0.12457980243987654,0.014513840147367108
-0.012566370614359173,0.013962634015954637,0.09005898940290741,9.283628666666665,-0.3840937916666667,-3.0727503333333335,-0.0013834804859237432,0.025747600627153127,0.07890034845143891,0.004185242275505535,0.03460894689811395,0.09561179095447825,-0.00910026315095219,-0.011271031611271843,0.0022356500037635694,-0.05172168527001668,0.06314936542014123,-0.05910345590551801
0.006283185307179587,0.03700098014227979,0.08587019919812101,9.381695166666667,-0.5066769166666666,-2.966511625,-0.0013834804859237432,0.025747600627153127,0.07890034845143891,0.004185242275505535,0.03460894689811395,0.09561179095447825,-0.007443377402225545,0.010881086459361575,0.0018463080263259578,0.09958565837527834,-0.022798197889238578,-0.06707647367402832
0.020943951023931952,0.0153588974175501,0.08237954069413235,9.177389958333332,-0.45764366666666667,-2.8439284999999996,-0.0013834804859237432,0.025747600627153127,0.07890034845143891,0.004185242275505535,0.03460894689811395,0.09561179095447825,-0.007228589934609731,-0.004660704246471559,0.002939223823706691,-0.11711129688022631,-0.1373004853636419,0.07164595200970025
0.03490658503988659,0.025132741228718346,0.07609635538695278,9.406211791666665,-0.17978858333333333,-2.999200458333333,-0.0013834804859237432,0.025747600627153127,0.07890034845143891,0.004185242275505535,0.03460894689811395,0.09561179095447825,0.007223172345891845,0.003482313057091319,-0.0019345488800816405,0.18532388726872565,-0.2515105705116129,0.0022088929723718107
0.020943951023931952,0.01815142422074103,0.07958701389094143,9.030290208333332,0.32688833333333334,-3.015544875,-0.0013834804859237432,0.025747600627153127,0.07890034845143891,0.004185242275505535,0.03460894689811395,0.09561179095447825,0.011317271492046291,-0.0030794880951429686,-0.0020751891765508775,-0.17817258499226918,-0.13300906084558797,-0.018182850279056813
-0.0020943951023931952,0.024434609527920613,0.08377580409572781,9.381695166666667,0.5965712083333333,-2.99102825,-0.0013834804859237432,0.025747600627153127,0.07890034845143891,0.004185242275505535,0.03460894689811395,0.09561179095447825,0.012556967627286425,-0.0023354436761175434,0.0017366944711683678,-0.14867324506568727,0.2924729831212334,-0.8258967915675377
-0.02722713633111154,0.024434609527920613,0.07958701389094143,9.242767624999999,0.14709974999999997,-2.99102825,-0.0013834804859237432,0.025747600627153127,0.07890034845143891,0.004185242275505535,0.03460894689811395,0.09561179095447825,0.004993595841312283,0.0004958893244075945,0.003929464905582666,-0.039272979459565316,0.13309572850833412,0.03488368936575224
-0.03700098014227979,0.023736477827122883,0.07120943348136866,9.316317499999998,-0.11441091666666667,-3.0727503333333335,-0.0013834804859237432,0.025747600627153127,0.07890034845143891,0.004185242275505535,0.03460894689811395,0.09561179095447825,-0.0061456940760127214,0.004366254383123169,-0.004103688124127095,0.02593302783877711,0.09624523120641691,-0.05493017053048336
-0.024434609527920613,0.0153588974175501,0.07958701389094143,9.259112041666667,-0.3023717083333333,-2.974683833333333,-0.0013834804859237432,0.025747600627153127,0.07890034845143891,0.004185242275505535,0.03460894689811395,0.09561179095447825,-0.009699280161338163,-0.007007354079624811,-3.46152570065123e-05,-0.1416040774214131,0.0389188522742606,-0.0183610195896889
-0.005585053606381855,0.029321531433504733,0.07958701389094143,9.536967125,-0.3759215833333333,-2.9501672083333332,-0.0013834804859237432,0.025747600627153127,0.07890034845143891,0.004185242275505535,0.03460894689811395,0.09561179095447825,-0.00930984686394104,0.002122428232640565,0.000943133288486711,0.1240172994233497,0.07123329270659895,-0.013958293818957475
0.013264502315156905,0.025132741228718346,0.07749261878854824,9.283628666666665,-0.5148491249999999,-2.9338227916666666,-0.0013834804859237432,0.025747600627153127,0.07890034845143891,0.004185242275505535,0.03460894689811395,0.09561179095447825,-0.008852288461588262,-0.00017476665348859798,0.0021695593984094896,-0.10057459887940781,-0.08373822919213947,0.010539892321869969
0.0307177948351002,0.02583087292951608,0.07330382858376185,9.479761666666667,-0.34323275000000003,-2.966511625,-0.0013834804859237432,0.025747600627153127,0.07890034845143891,0.004185242275505535,0.03460894689811395,0.09561179095447825,0.0008436247446983987,0.001755908960088847,-0.0003021801085342467,0.08316403624494267,-0.22703969954877865,0.018523863062994795
0.029321531433504733,0.02234021442552742,0.07330382858376185,9.308145291666667,0.11441091666666667,-3.015544875,-0.0013834804859237432,0.025747600627153127,0.07890034845143891,0.004185242275505535,0.03460894689811395,0.09561179095447825,0.00789433658277539,0.002440947789531612,-0.0031634358330524023,-0.07204710092179299,-0.20650935466561818,-0.001797734054126154
0.013264502315156905,0.017453292519943295,0.08028514559173915,9.447072833333333,0.5311935416666667,-3.023717083333333,-0.0013834804859237432,0.025747600627153127,0.07890034845143891,0.004185242275505535,0.03460894689811395,0.09561179095447825,0.013141804182637993,-0.007058388044023745,-0.004724580322566006,0.005421711143071716,0.07538662014959054,-0.030557955254419126
-0.012566370614359173,0.032114058236695664,0.08936085770210968,9.430728416666666,0.3840937916666667,-2.974683833333333,-0.0013834804859237432,0.025747600627153127,0.07890034845143891,0.004185242275505535,0.03460894689811395,0.09561179095447825,0.011043373052719034,0.0030101155131925313,0.006029949246185611,-0.006528010224874887,0.12470962527886736,0.1046757779167934
-0.03490658503988659,0.02652900463031381,0.07749261878854824,9.438900625,0.13892754166666665,-3.195333458333333,-0.0013834804859237432,0.025747600627153127,0.07890034845143891,0.004185242275505535,0.03460894689811395,0.09561179095447825,-0.0024207322096566138,-0.0036577040175229413,-0.005728889152292458,-0.22611190961770763,0.24501503005037098,-1.1537309924373178
-0.02722713633111154,0.028623399732707,0.08656833089891874,9.357178541666666,-0.269682875,-2.9093061666666666,-0.0013834804859237432,0.025747600627153127,0.07890034845143891,0.004185242275505535,0.03460894689811395,0.09561179095447825,-0.004900238384987038,0.0029882814485495783,0.004177255935244639,0.0015612449551828244,0.04700456057965335,0.10045187782745477
-0.017453292519943295,0.023038346126325153,0.07819075048934597,9.349006333333334,-0.35957716666666667,-3.1217835833333334,-0.0013834804859237432,0.025747600627153127,0.07890034845143891,0.004185242275505535,0.03460894689811395,0.09561179095447825,-0.01166291503314458,-0.007612808824897664,-0.0017937667693142965,0.05864590618824876,0.059121410818155425,-0.1569560573041201
0.005585053606381855,0.03839724354387525,0.08168140899333462,9.226423208333333,-0.4739880833333333,-2.8194118749999997,-0.0013834804859237432,0.025747600627153127,0.07890034845143891,0.004185242275505535,0.03460894689811395,0.09561179095447825,-0.009208705165351504,0.008261347624409573,-4.0733137712348975e-05,-0.06798488514503521,-0.022647977357948844,0.08416867113738027
0.023736477827122883,0.021642082724729686,0.08168140899333462,9.357178541666666,-0.42495483333333334,-2.999200458333333,-0.0013834804859237432,0.025747600627153127,0.07890034845143891,0.004185242275505535,0.03460894689811395,0.09561179095447825,-0.005865971128944637,-0.0034993975517600773,0.002343465807128229,-0.018968116805477553,-0.16581986825233916,-0.08352224501879267
0.03560471674068433,0.029321531433504733,0.0767944870877505,9.389867375,-0.08989429166666667,-2.8439284999999996,-0.0013834804859237432,0.025747600627153127,0.07890034845143891,0.004185242275505535,0.03460894689811395,0.09561179095447825,0.008698951553484439,0.007595677363392647,-0.003642391445336686,0.1814137166454117,-0.3250790113371002,0.10030290014850654
0.01815142422074103,0.013962634015954637,0.08377580409572781,9.022118,0.563882375,-3.0564059166666664,-0.0013834804859237432,0.025747600627153127,0.07890034845143891,0.004185242275505535,0.03460894689811395,0.09561179095447825,0.014162898727319467,-0.010655795074334699,-0.004074735535101519,-0.27245984926729394,-0.006371090372531662,-0.0019259827768867198
-0.009773843811168246,0.03560471674068433,0.09215338450530061,9.561483749999999,0.5802267916666666,-3.0645781249999997,-0.0013834804859237432,0.025747600627153127,0.07890034845143891,0.004185242275505535,0.03460894689811395,0.09561179095447825,0.015631171863565805,0.004338562358810729,0.0037540183382812806,0.18545859200496437,0.17750757845433854,0.002487732789201963
-0.041189770347066175,0.02722713633111154,0.08517206749732328,9.185562166666665,0.22882183333333334,-3.0809225416666663,-0.0013834804859237432,0.025747600627153127,0.07890034845143891,0.004185242275505535,0.03460894689811395,0.09561179095447825,-0.004302377539810626,-0.0036318336116937097,0.0007289459481582723,-0.17405835392814312,0.3332469912702743,-0.058876146407028096
-0.032812189937493394,0.03420845333908886,0.08307767239493008,9.528794916666666,-0.43312704166666666,-2.974683833333333,-0.0013834804859237432,0.025747600627153127,0.07890034845143891,0.004185242275505535,0.03460894689811395,0.09561179095447825,-0.0069911245509177685,0.005985962130557098,0.006823008196095972,0.16071704051301555,0.059421453695989786,-0.08751604833348142
-0.01884955592153876,0.02234021442552742,0.06911503837897544,9.201906583333333,-0.5475379583333333,-2.811239666666667,-0.0013834804859237432,0.025747600627153127,0.07890034845143891,0.004185242275505535,0.03460894689811395,0.09561179095447825,-0.00994005621227259,-0.007268924393996107,-0.0036506396850046197,-0.35798686996075985,0.058856793124211416,-1.0497162201448238
0.006981317007977318,0.028623399732707,0.0747000919853573,9.26728425,-0.5720545833333333,-2.99102825,-0.0013834804859237432,0.025747600627153127,0.07890034845143891,0.004185242275505535,0.03460894689811395,0.09561179095447825,-0.007508000199494239,0.004004450218370757,0.002481780594047504,-0.01489514695914964,-0.14094085566725134,0.030924068436411475
0.021642082724729686,0.02024581932313422,0.06981317007977318,9.291800875,-0.2860272916666666,-3.0645781249999997,-0.0013834804859237432,0.025747600627153127,0.07890034845143891,0.004185242275505535,0.03460894689811395,0.09561179095447825,-0.002645899733398523,0.005901147912168547,-0.0029657701050544005,-0.12132712190773202,-0.2963398527514477,0.16535626186070362
0.02722713633111154,0.008377580409572781,0.07539822368615504,9.528794916666666,0.3105439166666667,-3.4078108749999996,-0.0013834804859237432,0.025747600627153127,0.07890034845143891,0.004185242275505535,0.03460894689811395,0.09561179095447825,0.012095248497696626,-0.014581628391870658,0.0026518979040772114,-0.027177747124475137,-0.055172012869526464,-0.16120776535166123
0.0027925268031909274,0.03769911184307752,0.07051130178057091,9.577828166666666,0.42495483333333334,-3.0972669583333334,-0.0013834804859237432,0.025747600627153127,0.07890034845143891,0.004185242275505535,0.03460894689811395,0.09561179095447825,0.015420745014760468,0.004550990458336189,0.0015893189195960436,-0.02292184310345115,0.010431618131887277,0.014774404402079631
-0.027925268031909273,0.028623399732707,0.06702064327658225,9.618689208333333,0.40861041666666664,-3.138128,-0.0013834804859237432,0.025747600627153127,0.07890034845143891,0.004185242275505535,0.03460894689811395,0.09561179095447825,0.0035816150839561274,-0.006128745920455508,0.0035690143726833374,-0.1985465180614294,0.4643960689435996,0.1168539304936698
-0.03490658503988659,0.041189770347066175,0.060039326268604934,10.010955208333332,-0.5148491249999999,-3.3832942499999996,-0.0013834804859237432,0.025747600627153127,0.07890034845143891,0.004185242275505535,0.03460894689811395,0.09561179095447825,-0.012952921079631474,0.010468477496130365,-0.004090163371573691,0.25077571315749486,0.06789384324595575,-0.28772929027041294
-0.009075712110370514,0.02024581932313422,0.06771877497737998,9.504278291666665,-0.6456044583333332,-2.8194118749999997,-0.0013834804859237432,0.025747600627153127,0.07890034845143891,0.004185242275505535,0.03460894689811395,0.09561179095447825,-0.012355997267008516,-0.015093802494660588,-0.007861992418429754,0.07506373252947553,-0.17784686482512913,0.16606785323583786
0.0153588974175501,0.050963614158234416,0.08377580409572781,9.349006333333334,-0.2860272916666666,-3.162644625,-0.0013834804859237432,0.025747600627153127,0.07890034845143891,0.004185242275505535,0.03460894689811395,0.09561179095447825,-0.008620518157229655,-0.0030667231389411983,-0.020373619433783546,0.20184851169029164,-0.14988511936586787,-0.17271078137783968
0.032812189937493394,0.057246799465414,0.12426744274199628,8.940395916666665,0.016344416666666667,-2.827584083333333,-0.0013834804859237432,0.025747600627153127,0.07890034845143891,0.004185242275505535,0.03460894689811395,0.09561179095447825,0.005032323433741122,0.010966910022938068,-0.014201861904570021,-0.02699234719409424,0.025025774887912255,0.05567191710679872
0.023038346126325153,0.03560471674068433,0.15289084247470325,8.989429166666666,-0.032688833333333334,-2.9501672083333332,-0.0013834804859237432,0.025747600627153127,0.07890034845143891,0.004185242275505535,0.03460894689811395,0.09561179095447825,0.0038689544850173054,-0.01490571837251874,0.00896299239777866,-0.5760568772224014,0.21603121469195632,-1.2791796966013982
0.023038346126325153,0.05864306286700947,0.143116998663535,9.430728416666666,-0.24516625,-2.9501672083333332,-0.0013834804859237432,0.025747600627153127,0.07890034845143891,0.004185242275505535,0.03460894689811395,0.09561179095447825,0.0035771218026653443,0.013440023014143272,0.012218705109174827,0.2754455611479844,-0.09323361372027729,-0.08290936134243354
0.016057029118347832,0.032114058236695664,0.11868238913561441,8.87501825,-0.057205458333333334,-2.7948952499999997,-0.0013834804859237432,0.025747600627153127,0.07890034845143891,0.004185242275505535,0.03460894689811395,0.09561179095447825,0.00782379835980664,0.003839579812605396,0.004976981080047899,-0.13326723624049674,-0.26854896029378084,0.12486594492955291
0.0006981317007977319,0.024434609527920613,0.10890854532444616,9.136528916666666,0.48216029166666663,-3.0564059166666664,-0.0013834804859237432,0.025747600627153127,0.07890034845143891,0.004185242275505535,0.03460894689811395,0.09561179095447825,0.019896448878999357,-0.013090583044831848,0.01365562846654793,0.030172876785526385,0.14065945658636644,-0.19776354081413283
-0.039793506945470715,0.050963614158234416,0.08168140899333462,9.07115125,0.20430520833333332,-2.672312125,-0.0013834804859237432,0.025747600627153127,0.07890034845143891,0.004185242275505535,0.03460894689811395,0.09561179095447825,0.0062471540420545426,0.008902152846628004,0.014261644744272061,-0.05557914784037447,0.3500467389931913,0.13762103024455669
-0.05166174585903216,0.033510321638291124,0.05305800926062762,9.177389958333332,-0.4903325,-2.9583394166666666,-0.0013834804859237432,0.025747600627153127,0.07890034845143891,0.004185242275505535,0.03460894689811395,0.09561179095447825,-0.015777858385622623,0.0010106769892472254,0.014638165003925065,0.07523866152343857,0.2973286041139019,-0.12849120190717284
-0.02024581932313422,0.031415926535897934,0.023736477827122883,9.022118,-1.0787315,-2.7131731666666665,-0.0013834804859237432,0.025747600627153127,0.07890034845143891,0.004185242275505535,0.03460894689811395,0.09561179095447825,-0.017679361001010696,0.010208928775407624,-0.004254318137355826,0.18932087140072862,-0.3852353472457292,-0.038674551040139525
0.0153588974175501,0.01117010721276371,0.032114058236695664,8.638024208333333,-0.3023717083333333,-2.6477955,-0.0013834804859237432,0.025747600627153127,0.07890034845143891,0.004185242275505535,0.03460894689811395,0.09561179095447825,-0.007869280273327891,-0.01870714000935658,-0.009116819473357999,-0.4151872410516859,-0.12795158566037299,0.1823558917714427
0.0307177948351002,0.048869219055841226,0.05026548245743669,9.46341725,-0.04086104166666667,-3.023717083333333,-0.0013834804859237432,0.025747600627153127,0.07890034845143891,0.004185242275505535,0.03460894689811395,0.09561179095447825,0.009750991091722457,0.00653987939815484,-0.0023507907435803077,0.47135531430051925,-0.10802149037340185,-0.20178171418718227
0.01117010721276371,0.03560471674068433,0.05515240436302082,8.515441083333332,0.17978858333333333,-2.631451083333333,-0.0013834804859237432,0.025747600627153127,0.07890034845143891,0.004185242275505535,0.03460894689811395,0.09561179095447825,-0.0006143720076501709,0.01821578478200216,-0.006847581861441922,-0.4929606642374649,0.0759332096353556,0.28412914751622576
0.012566370614359173,-0.0006981317007977319,0.06841690667817772,9.496106083333332,0.032688833333333334,-3.211677875,-0.0013834804859237432,0.025747600627153127,0.07890034845143891,0.004185242275505535,0.03460894689811395,0.09561179095447825,0.008858227208769503,-0.022887094929601653,-0.0063899575017578375,-0.30499679757678044,-0.09381168033434054,-1.5751079262049303
-0.0006981317007977319,0.032812189937493394,0.06981317007977318,9.389867375,0.45764366666666667,-2.7703786249999998,-0.0013834804859237432,0.025747600627153127,0.07890034845143891,0.004185242275505535,0.03460894689811395,0.09561179095447825,0.004054681970324271,0.014003453760709357,-0.03215982852631751,0.10781375594083602,-0.04345713923647367,0.1695357235481287
-0.009075712110370514,0.0041887902047863905,0.1340412865531645,9.16921775,0.5475379583333333,-3.1217835833333334,-0.0013834804859237432,0.025747600627153127,0.07890034845143891,0.004185242275505535,0.03460894689811395,0.09561179095447825,0.015012047183142153,-0.014398667614943348,0.012509587287863173,-0.19077064179192768,0.3607051219748978,-0.14895521424998212
-0.039095375244672985,0.033510321638291124,0.1096066770252439,9.545139333333333,-0.17161637500000002,-2.8357562916666668,-0.0013834804859237432,0.025747600627153127,0.07890034845143891,0.004185242275505535,0.03460894689811395,0.09561179095447825,-0.009713425749952652,0.02445931348930107,0.0001236966741000139,0.07079779223764311,0.23023846460860542,0.06304193624753353
-0.019547687622336492,-0.0153588974175501,0.10890854532444616,9.398039583333333,-0.6292600416666666,-2.974683833333333,-0.0013834804859237432,0.025747600627153127,0.07890034845143891,0.004185242275505535,0.03460894689811395,0.09561179095447825,-0.009872505061585947,-0.00976874406638,0.018261242558644402,-0.399213008416018,-0.11264358178996473,0.0383536420933705
0.0,0.0041887902047863905,0.07260569688296412,10.190743791666666,-0.4004382083333333,-3.0645781249999997,-0.0013834804859237432,0.025747600627153127,0.07890034845143891,0.004185242275505535,0.03460894689811395,0.09561179095447825,-0.004657577979009125,0.006138337771204134,-0.018024648896993026,0.33222576762776634,-0.3170901057863546,0.00561577366798543
0.009773843811168246,-0.00767944870877505,0.10821041362364843,9.520622708333333,0.23699404166666665,-3.0890947499999997,-0.0013834804859237432,0.025747600627153127,0.07890034845143891,0.004185242275505535,0.03460894689811395,0.09561179095447825,0.008652093158223068,-0.02516613601250817,0.020258950818299648,-0.23550910721271925,0.36956696421974805,0.09618453170541442
-0.00767944870877505,0.04258603374866164,0.06771877497737998,9.986438583333333,-0.4985047083333333,-3.293399958333333,-0.0013834804859237432,0.025747600627153127,0.07890034845143891,0.004185242275505535,0.03460894689811395,0.09561179095447825,-0.009884605034154713,0.01748324545333824,-0.0009222962171125626,0.5286492413331536,-0.09177632522460309,-0.5166341255067054
0.011868238913561441,0.00767944870877505,0.06911503837897544,8.9240515,-0.3105439166666667,-2.2718739166666664,-0.0013834804859237432,0.025747600627153127,0.07890034845143891,0.004185242275505535,0.03460894689811395,0.09561179095447825,-0.0068889254480642105,0.0006301122797834203,0.008130394920871094,-0.7179456276922411,0.06761745017918817,0.5739252359994873
0.02583087292951608,0.006981317007977318,0.05305800926062762,10.354187958333334,-0.44129925,-3.4323274999999995,-0.0013834804859237432,0.025747600627153127,0.07890034845143891,0.004185242275505535,0.03460894689811395,0.09561179095447825,0.002330752986381612,-0.014383147065636068,-0.007013931234452324,0.7286629218110159,-0.6311582575640495,-0.3085073407737254
0.020943951023931952,0.03560471674068433,0.06702064327658225,8.891362666666666,0.8253930416666666,-2.827584083333333,-0.0013834804859237432,0.025747600627153127,0.07890034845143891,0.004185242275505535,0.03460894689811395,0.09561179095447825,0.013356172661036815,-0.0008777277222226417,-0.016164669826032787,-0.7260483125093814,0.34032403636021374,-1.1724663312243877
0.0013962634015954637,0.031415926535897934,0.09564404300928926,9.528794916666666,0.4494714583333333,-3.3015721666666664,-0.0013834804859237432,0.025747600627153127,0.07890034845143891,0.004185242275505535,0.03460894689811395,0.09561179095447825,0.011509215529718033,-0.022668955885109324,0.008622027333798249,0.410372258849875,0.24693982374024365,-0.426111783689736
-0.021642082724729686,0.0767944870877505,0.07819075048934597,8.703401874999999,-0.04086104166666667,-2.459834708333333,-0.0013834804859237432,0.025747600627153127,0.07890034845143891,0.004185242275505535,0.03460894689811395,0.09561179095447825,-0.005729756542174935,0.038748064977588974,-0.008529407211546838,-0.15779190811551475,-0.026535059311682138,0.26823538426348814
-0.010471975511965976,-0.0006981317007977319,0.09564404300928926,9.013945791666666,0.016344416666666667,-3.0073726666666665,-0.0013834804859237432,0.025747600627153127,0.07890034845143891,0.004185242275505535,0.03460894689811395,0.09561179095447825,0.0018872702506664552,-0.022720866379695687,0.009792256804912818,-0.1824306336597559,0.1243703515249327,0.13305268737264078
-0.013962634015954637,0.04468042885105484,0.07609635538695278,9.373522958333332,-0.22882183333333334,-3.2852277500000002,-0.0013834804859237432,0.025747600627153127,0.07890034845143891,0.004185242275505535,0.03460894689811395,0.09561179095447825,-0.0026865092558589084,0.009629054237967094,-0.01660215092552316,0.34880002120481496,-0.06355284979031842,-0.1895519662052346
-0.009075712110370514,0.02583087292951608,0.10890854532444616,8.670713041666666,-0.0980665,-2.9174783749999995,-0.0013834804859237432,0.025747600627153127,0.07890034845143891,0.004185242275505535,0.03460894689811395,0.09561179095447825,0.00299808402624714,-0.01688371926832126,0.012048569817244037,-0.18625892112552705,0.2876603225575152,-0.017864591341963887
-0.014660765716752367,0.059341194567807204,0.08517206749732328,9.038462416666666,-0.6701210833333332,-2.8929617499999996,-0.0013834804859237432,0.025747600627153127,0.07890034845143891,0.004185242275505535,0.03460894689811395,0.09561179095447825,-0.007841319580666792,0.022605841215850485,0.002656411929251746,0.23034300717139755,-0.21047586207672805,-0.13235357973462775
0.0006981317007977319,0.014660765716752367,0.07958701389094143,8.572646541666666,-0.24516625,-2.6396232916666666,-0.0013834804859237432,0.025747600627153127,0.07890034845143891,0.004185242275505535,0.03460894689811395,0.09561179095447825,-0.009634425918724106,0.009892512806453401,0.011800259687728172,-0.591258419271151,0.108359720934674,0.37367952128136894
0.02024581932313422,-0.004886921905584123,0.05585053606381855,9.749444541666666,-0.45764366666666667,-3.3996386666666667,-0.0013834804859237432,0.025747600627153127,0.07890034845143891,0.004185242275505535,0.03460894689811395,0.09561179095447825,0.0005336384809105204,-0.009896846782115186,-0.003912635230642799,0.32417556056680025,-0.3982753261041666,-0.23105345652364218
0.019547687622336492,0.014660765716752367,0.0635299847725936,9.095667875,0.34323275000000003,-2.9501672083333332,-0.0013834804859237432,0.025747600627153127,0.07890034845143891,0.004185242275505535,0.03460894689811395,0.09561179095447825,0.006822786996246972,-0.002757621848125435,-0.006622666741437089,-0.3786280030005452,0.14106296709244945,0.30048416499819214
0.005585053606381855,0.02024581932313422,0.0767944870877505,9.847511041666666,0.06537766666666667,-3.563082833333333,-0.0013834804859237432,0.025747600627153127,0.07890034845143891,0.004185242275505535,0.03460894689811395,0.09561179095447825,0.013729185762511694,-0.018158457851282162,0.014172787534382978,0.2551130631045566,0.08600480989165679,-2.0576755067333194
-0.016755160819145562,0.04677482395344803,0.04328416544945937,8.580818749999999,0.122583125,-2.3454237916666667,-0.0013834804859237432,0.025747600627153127,0.07890034845143891,0.004185242275505535,0.03460894689811395,0.09561179095447825,-0.002988114093425338,0.034258270124948136,-0.01647420377086791,-0.456314699747689,0.13333790997995412,0.32054829016443
-0.010471975511965976,-0.021642082724729686,0.07609635538695278,9.487933875,-0.13892754166666665,-2.999200458333333,-0.0013834804859237432,0.025747600627153127,0.07890034845143891,0.004185242275505535,0.03460894689811395,0.09561179095447825,0.00369980277572703,-0.016253390920848054,0.013106396535362792,-0.2889274856599061,0.05564506994348836,0.13643443308943873
-0.01815142422074103,0.01117010721276371,0.04956735075663895,10.059988458333333,-0.24516625,-3.2852277500000002,-0.0013834804859237432,0.025747600627153127,0.07890034845143891,0.004185242275505535,0.03460894689811395,0.09561179095447825,-0.0077297634241143606,0.0032896801369120842,-0.024720107556263665,0.36912333785008195,-0.17766933962683404,-0.24321689640472222
-0.0027925268031909274,0.0041887902047863905,0.0991347015132779,9.316317499999998,0.11441091666666667,-2.811239666666667,-0.0013834804859237432,0.025747600627153127,0.07890034845143891,0.004185242275505535,0.03460894689811395,0.09561179095447825,0.0053242443808694815,-0.020699481525407206,0.004290374188543788,-0.33766697564126125,0.1936594127667137,0.1370344900814416
-0.013264502315156905,0.046076692252650306,0.09005898940290741,9.986438583333333,-0.269682875,-3.0972669583333334,-0.0013834804859237432,0.025747600627153127,0.07890034845143891,0.004185242275505535,0.03460894689811395,0.09561179095447825,0.00037652447737051686,0.015234981657278246,0.003442775933732525,0.5899503622862676,-0.01438844227391695,-0.19373951202580275
-0.013962634015954637,0.016057029118347832,0.08377580409572781,8.801468374999999,-0.23699404166666665,-2.7213453750000003,-0.0013834804859237432,0.025747600627153127,0.07890034845143891,0.004185242275505535,0.03460894689811395,0.09561179095447825,-0.013587574929071094,0.006032675071997001,-0.003792613458161053,-0.7300956850773144,0.20188337378317084,0.2757892047244111
0.013264502315156905,0.003490658503988659,0.09075712110370514,10.256121458333332,-0.63743225,-3.2852277500000002,-0.0013834804859237432,0.025747600627153127,0.07890034845143891,0.004185242275505535,0.03460894689811395,0.09561179095447825,-0.004419845664224643,-0.014758872292277016,-0.004369527276801065,0.6224235634936942,-0.3457355227703537,-0.2472519622376787
0.021642082724729686,0.033510321638291124,0.09983283321407566,9.005773583333333,0.057205458333333334,-2.803067458333333,-0.0013834804859237432,0.025747600627153127,0.07890034845143891,0.004185242275505535,0.03460894689811395,0.09561179095447825,0.00028900202210018963,-0.0007828457845768019,-0.005941916229176608,-0.3660970985501377,-0.1459253595801203,0.19876304367504144
0.021642082724729686,0.03490658503988659,0.1117010721276371,9.733100125,0.35140495833333335,-3.211677875,-0.0013834804859237432,0.025747600627153127,0.07890034845143891,0.004185242275505535,0.03460894689811395,0.09561179095447825,0.013834816800301682,-0.008992550973702152,0.012190044776624788,0.3244208636091477,0.19750601720678349,-0.28741832485352337
-0.006283185307179587,0.05305800926062762,0.08726646259971647,9.079323458333333,-0.04086104166666667,-2.6477955,-0.0013834804859237432,0.025747600627153127,0.07890034845143891,0.004185242275505535,0.03460894689811395,0.09561179095447825,0.003943978956900278,0.01588228026156803,0.0008100245650125115,-0.4740106917818696,0.1568506701638967,-1.2597972239507726
-0.006981317007977318,0.012566370614359173,0.08447393579652555,9.234595416666666,-0.024516625,-3.015544875,-0.0013834804859237432,0.025747600627153127,0.07890034845143891,0.004185242275505535,0.03460894689811395,0.09561179095447825,-0.0034653655254935603,-0.007766173111448562,0.00449590764183846,-0.2069263108300479,0.1164662200468156,0.0594256547351197
0.0,0.028623399732707,0.07539822368615504,9.643205833333333,-0.2533384583333333,-3.1463002083333333,-0.0013834804859237432,0.025747600627153127,0.07890034845143891,0.004185242275505535,0.03460894689811395,0.09561179095447825,-0.00026966007580167393,-0.004557354031459071,-0.003003466666323463,0.5081133619930653,-0.2065522950377841,-0.15272799250464172
0.0006981317007977319,0.03700098014227979,0.08098327729253688,8.621679791666667,0.16344416666666667,-2.852100708333333,-0.0013834804859237432,0.025747600627153127,0.07890034845143891,0.004185242275505535,0.03460894689811395,0.09561179095447825,0.004519577678380194,0.0036069677099576517,-0.004334259706629067,-0.276203327988143,-0.030645129376234127,0.02694308182549464
-0.008377580409572781,0.0307177948351002,0.09005898940290741,9.16921775,0.22882183333333334,-2.9174783749999995,-0.0013834804859237432,0.025747600627153127,0.07890034845143891,0.004185242275505535,0.03460894689811395,0.09561179095447825,0.006464868983917204,-0.0007497215600379229,0.011296300749651175,0.18945166884619258,0.19812263601602245,-0.12012536367627177
-0.020943951023931952,0.032114058236695664,0.06702064327658225,8.785123958333333,-0.16344416666666667,-2.6886565416666666,-0.0013834804859237432,0.025747600627153127,0.07890034845143891,0.004185242275505535,0.03460894689811395,0.09561179095447825,-0.005162384445702516,0.02032484052519306,-0.0022277334568863187,-0.12947858334500512,0.002255867207249945,0.1695195145598053
-0.01117010721276371,-0.008377580409572781,0.07190756518216637,9.038462416666666,-0.16344416666666667,-3.0400614999999998,-0.0013834804859237432,0.025747600627153127,0.07890034845143891,0.004185242275505535,0.03460894689811395,0.09561179095447825,-0.008612515650428032,-0.010401551901140326,-0.0013717442607499926,-0.14979190028146755,0.04307318262660256,0.03844520437724615
0.006283185307179587,0.012566370614359173,0.0747000919853573,9.332661916666666,-0.24516625,-3.1299557916666663,-0.0013834804859237432,0.025747600627153127,0.07890034845143891,0.004185242275505535,0.03460894689811395,0.09561179095447825,-0.002197323437891531,0.0046451238476627925,-0.0015637984191635321,0.2709061859922035,-0.149246477262524,-0.20238493167684318
0.010471975511965976,0.003490658503988659,0.07749261878854824,8.785123958333333,0.057205458333333334,-2.7376897916666665,-0.0013834804859237432,0.025747600627153127,0.07890034845143891,0.004185242275505535,0.03460894689811395,0.09561179095447825,0.0014416236162454932,-0.00460042737635859,0.0033218133346805743,-0.4971119023501201,-0.022466940226503387,0.16540133573516924
0.00767944870877505,0.012566370614359173,0.07051130178057091,9.773961166666666,0.10623870833333333,-3.0809225416666663,-0.0013834804859237432,0.025747600627153127,0.07890034845143891,0.004185242275505535,0.03460894689811395,0.09561179095447825,0.005773781942437729,0.0040884869775255125,0.003566626029976966,0.4100228097402766,0.03895461941991302,-0.16558984219626652
-0.0041887902047863905,0.0041887902047863905,0.0635299847725936,8.948568125,0.032688833333333334,-2.7622064166666664,-0.0013834804859237432,0.025747600627153127,0.07890034845143891,0.004185242275505535,0.03460894689811395,0.09561179095447825,0.006947016114990047,0.0006624058687730759,-0.009868130926858383,-0.6783790776352874,0.2103908006780968,-1.2023574799630674
-0.009075712110370514,-0.011868238913561441,0.07819075048934597,9.577828166666666,0.008172208333333333,-3.2852277500000002,-0.0013834804859237432,0.025747600627153127,0.07890034845143891,0.004185242275505535,0.03460894689811395,0.09561179095447825,-2.6531084049749827e-05,-0.020282474929354467,-0.005032547583723795,-0.03948303409137043,0.07540312061808635,-0.07994445427410139
-0.008377580409572781,0.029321531433504733,0.0879645943005142,9.651378041666666,-0.13892754166666665,-3.138128,-0.0013834804859237432,0.025747600627153127,0.07890034845143891,0.004185242275505535,0.03460894689811395,0.09561179095447825,-0.0014724552284724776,0.009601639321633331,0.00200871264423806,0.24256291580289618,0.0836417283827095,-0.06716144536035282
-0.005585053606381855,0.009773843811168246,0.08377580409572781,9.161045541666667,-0.3023717083333333,-3.015544875,-0.0013834804859237432,0.025747600627153127,0.07890034845143891,0.004185242275505535,0.03460894689811395,0.09561179095447825,-0.00041493833081782133,-0.002007057254367822,0.00326202866039319,-0.43178007161895837,-0.10027025533357216,-0.02268274651394093
-0.004886921905584123,0.014660765716752367,0.07749261878854824,10.019127416666667,-0.0980665,-2.982856041666666,-0.0013834804859237432,0.025747600627153127,0.07890034845143891,0.004185242275505535,0.03460894689811395,0.09561179095447825,-0.0009564719064001922,-0.002140793487539888,0.00019697798624158472,0.29955293988975484,0.01838619745006127,-0.05503689810886183
-0.003490658503988659,0.01884955592153876,0.0767944870877505,9.414383999999998,-0.13075533333333333,-2.8847895416666667,-0.0013834804859237432,0.025747600627153127,0.07890034845143891,0.004185242275505535,0.03460894689811395,0.09561179095447825,0.003907391226678461,0.0018035209317004426,0.0015526930959894874,-0.15376351100303728,-0.005884287645560356,0.12877161453766403
-0.01117010721276371,0.0153588974175501,0.07400196028455958,9.716755708333332,-0.11441091666666667,-3.1544724166666662,-0.0013834804859237432,0.025747600627153127,0.07890034845143891,0.004185242275505535,0.03460894689811395,0.09561179095447825,-0.0035487259954824343,-0.0075867522356135335,-0.005373105012619688,0.009520190420078768,0.11634169611445985,-0.06314352285674771
-0.0041887902047863905,0.0307177948351002,0.08447393579652555,9.692239083333332,-0.34323275000000003,-3.0400614999999998,-0.0013834804859237432,0.025747600627153127,0.07890034845143891,0.004185242275505535,0.03460894689811395,0.09561179095447825,-0.008174185548409221,0.0035460358158329475,-0.0032916111165410653,0.2711667986471779,0.009916537243309449,-0.06304070012343474
0.012566370614359173,0.023736477827122883,0.09075712110370514,9.144701125,-0.35957716666666667,-2.9256505833333333,-0.0013834804859237432,0.025747600627153127,0.07890034845143891,0.004185242275505535,0.03460894689811395,0.09561179095447825,-0.0008141226359349009,0.0004913554475720822,0.008881961374320606,-0.23142521029838237,-0.2148270287027846,0.03080442041872141
0.013962634015954637,0.023038346126325153,0.07330382858376185,9.602344791666665,0.07354987499999999,-2.999200458333333,-0.0013834804859237432,0.025747600627153127,0.07890034845143891,0.004185242275505535,0.03460894689811395,0.09561179095447825,0.004882904312056765,-0.0008908534550130422,-0.0029098374757819236,0.27942578976720156,-0.01426136977418819,-0.10403321520751241
0.0041887902047863905,0.025132741228718346,0.07888888219014369,9.038462416666666,0.10623870833333333,-2.803067458333333,-0.0013834804859237432,0.025747600627153127,0.07890034845143891,0.004185242275505535,0.03460894689811395,0.09561179095447825,0.011134011641814831,0.0007497856865410319,-0.0029127438413793943,-0.5958634876456551,0.24438969592344337,-1.2806234958081795
-0.009075712110370514,0.012566370614359173,0.08517206749732328,9.545139333333333,0.06537766666666667,-3.1544724166666662,-0.0013834804859237432,0.025747600627153127,0.07890034845143891,0.004185242275505535,0.03460894689811395,0.09561179095447825,0.0005420431106633491,-0.018504952950621142,-0.005406152364632665,-0.06386874789140333,0.01403672510680696,-0.01390490888820684
-0.010471975511965976,0.04956735075663895,0.09564404300928926,9.667722458333333,0.04086104166666667,-3.138128,-0.0013834804859237432,0.025747600627153127,0.07890034845143891,0.004185242275505535,0.03460894689811395,0.09561179095447825,-0.003233012110319395,0.004874535101980476,-0.0027087773922526955,0.5736623151329701,0.120208336382526,-0.1279956800152204
-0.0041887902047863905,0.039793506945470715,0.10122909661567112,8.515441083333332,-0.196133,-2.8929617499999996,-0.0013834804859237432,0.025747600627153127,0.07890034845143891,0.004185242275505535,0.03460894689811395,0.09561179095447825,-0.0026326628979885217,0.008977660007534699,0.0067236595944653536,-0.47651473250456,0.0425090973158889,-0.0016619503436882607
0.0013962634015954637,0.02234021442552742,0.0879645943005142,9.46341725,-0.2778550833333333,-2.9011339583333333,-0.0013834804859237432,0.025747600627153127,0.07890034845143891,0.004185242275505535,0.03460894689811395,0.09561179095447825,-0.004207725178730236,-0.013961574381511353,0.002752734280741078,0.20583156237210537,-0.09643268365296837,-0.034334767617027015
0.009773843811168246,0.05026548245743669,0.08237954069413235,9.046634625,-0.08172208333333333,-2.8439284999999996,-0.0013834804859237432,0.025747600627153127,0.07890034845143891,0.004185242275505535,0.03460894689811395,0.09561179095447825,0.001972030758457928,0.022389663285025233,-0.0022029708604458286,0.1608353663928058,-0.06355093171432984,-0.013874951857264237
0.006283185307179587,0.005585053606381855,0.08656833089891874,8.719746291666667,0.04903325,-2.827584083333333,-0.0013834804859237432,0.025747600627153127,0.07890034845143891,0.004185242275505535,0.03460894689811395,0.09561179095447825,0.006758333861279984,-0.01017629613350956,0.007190647380646983,-0.4685111325686594,-0.022490703258967463,0.1858983837474713
-0.00767944870877505,0.02652900463031381,0.07190756518216637,9.651378041666666,0.0980665,-3.211677875,-0.0013834804859237432,0.025747600627153127,0.07890034845143891,0.004185242275505535,0.03460894689811395,0.09561179095447825,-0.0007214835807600257,-0.0068761099077593495,-0.004157601254811747,0.33676853215470676,0.030612891477171045,-0.11187828810902957
-0.006283185307179587,0.039793506945470715,0.08028514559173915,8.97308475,0.04086104166666667,-2.999200458333333,-0.0013834804859237432,0.025747600627153127,0.07890034845143891,0.004185242275505535,0.03460894689811395,0.09561179095447825,-0.0047669206105869265,0.01889655931807489,0.0003452660569460718,0.005358838197399821,0.1286538444691424,-0.09597761219202046
0.003490658503988659,0.0020943951023931952,0.07958701389094143,8.956740333333332,-0.21247741666666667,-2.8194118749999997,-0.0013834804859237432,0.025747600627153127,0.07890034845143891,0.004185242275505535,0.03460894689811395,0.09561179095447825,0.0017535780550893582,-0.009851980243074775,0.011873544315133124,-0.28457296406275523,-0.17747885251568168,0.05521105798514648
0.0,0.02234021442552742,0.05585053606381855,9.520622708333333,0.14709974999999997,-2.941995,-0.0013834804859237432,0.025747600627153127,0.07890034845143891,0.004185242275505535,0.03460894689811395,0.09561179095447825,0.003428842737471344,-0.0020818102640293144,-0.009664354767422412,0.02703409484290321,0.24362367601121107,-1.5543967542939912
-0.0006981317007977319,0.008377580409572781,0.06981317007977318,8.834157208333334,0.15527195833333335,-2.7213453750000003,-0.0013834804859237432,0.025747600627153127,0.07890034845143891,0.004185242275505535,0.03460894689811395,0.09561179095447825,0.007160841309728253,0.0016126580893006533,0.003036029719669865,-0.5788345323046126,0.05966338503107164,0.23471019657354944
-0.014660765716752367,0.004886921905584123,0.0635299847725936,9.986438583333333,0.04086104166666667,-3.2035056666666666,-0.0013834804859237432,0.025747600627153127,0.07890034845143891,0.004185242275505535,0.03460894689811395,0.09561179095447825,0.002077084906818748,-0.020993706888267263,-0.0011124895948563629,0.16885119189866393,0.06773035685864355,-0.18163439299128786
-0.01884955592153876,0.047472955654245766,0.06632251157578452,9.643205833333333,-0.08989429166666667,-2.852100708333333,-0.0013834804859237432,0.025747600627153127,0.07890034845143891,0.004185242275505535,0.03460894689811395,0.09561179095447825,-0.004213662233672655,0.020702776158687194,-0.008274570967815567,0.15273820394820267,0.20654897418803886,-0.0139274778094376
-0.010471975511965976,0.005585053606381855,0.08237954069413235,9.332661916666666,-0.4985047083333333,-2.8357562916666668,-0.0013834804859237432,0.025747600627153127,0.07890034845143891,0.004185242275505535,0.03460894689811395,0.09561179095447825,-0.005454865809920893,-0.0116703845916416,0.0009252053965785872,-0.3418083765278406,0.0508147769118215,0.07156213039877489
0.0006981317007977319,0.029321531433504733,0.08028514559173915,10.010955208333332,-0.5965712083333333,-2.99102825,-0.0013834804859237432,0.025747600627153127,0.07890034845143891,0.004185242275505535,0.03460894689811395,0.09561179095447825,-0.005397465041480287,-0.004398387764206314,0.0030794191437684896,0.40605504240871687,-0.3657422864267805,-0.014023205493104672
0.01117010721276371,0.03839724354387525,0.0747000919853573,9.193734375,0.13892754166666665,-2.974683833333333,-0.0013834804859237432,0.025747600627153127,0.07890034845143891,0.004185242275505535,0.03460894689811395,0.09561179095447825,-0.0030227489321087856,0.016925063697133008,-0.006824184801337962,-0.03950003282569222,-0.030810040630717357,-0.03043362912913464
0.016755160819145562,0.0041887902047863905,0.0879645943005142,9.26728425,0.20430520833333332,-2.9256505833333333,-0.0013834804859237432,0.025747600627153127,0.07890034845143891,0.004185242275505535,0.03460894689811395,0.09561179095447825,0.004777995411965492,-0.005858878301334332,-0.0017181757221073036,-0.2885758588488642,0.06697687601224685,0.09595348864881041
0.00767944870877505,0.016755160819145562,0.09075712110370514,9.839338833333333,0.07354987499999999,-3.1299557916666663,-0.0013834804859237432,0.025747600627153127,0.07890034845143891,0.004185242275505535,0.03460894689811395,0.09561179095447825,0.009610407116458254,-0.007065373425933157,0.0022617528711298424,0.23420671511757396,-0.010446720394840165,-0.030442819681028715
-0.01117010721276371,0.0307177948351002,0.08656833089891874,9.36535075,0.0980665,-3.0809225416666663,-0.0013834804859237432,0.025747600627153127,0.07890034845143891,0.004185242275505535,0.03460894689811395,0.09561179095447825,-0.0006851222692507698,0.013060530119804566,-0.007735255153631972,-0.051591577087096246,0.18139802447701753,-0.0713967295169852
-0.009773843811168246,0.004886921905584123,0.10192722831646883,9.46341725,-0.26151066666666667,-2.9501672083333332,-0.0013834804859237432,0.025747600627153127,0.07890034845143891,0.004185242275505535,0.03460894689811395,0.09561179095447825,-0.002704250870486768,-0.019659993831828516,0.007800623450586716,-0.27171613527961996,0.39089427550662176,-1.4203013080354794
0.0006981317007977319,0.023038346126325153,0.08936085770210968,9.438900625,-0.563882375,-2.982856041666666,-0.0013834804859237432,0.025747600627153127,0.07890034845143891,0.004185242275505535,0.03460894689811395,0.09561179095447825,-0.0006774312304814747,0.005566990943084383,0.009178722209664491,0.21380870538973634,-0.21446729508789827,-0.1491865781403172
0.0020943951023931952,0.012566370614359173,0.07120943348136866,9.005773583333333,-0.13075533333333333,-2.69682875,-0.0013834804859237432,0.025747600627153127,0.07890034845143891,0.004185242275505535,0.03460894689811395,0.09561179095447825,-0.004328246361155338,0.004927826331913362,-0.006519649569598321,-0.16213997616670617,-0.14524118213813597,0.16532038337917956
0.010471975511965976,0.0020943951023931952,0.08377580409572781,9.324489708333333,0.16344416666666667,-3.0400614999999998,-0.0013834804859237432,0.025747600627153127,0.07890034845143891,0.004185242275505535,0.03460894689811395,0.09561179095447825,0.005850768329678872,-0.008027606359641759,0.0009856783014510052,0.04643671675852102,-0.006248218800841233,-0.0674666563373582
-0.0013962634015954637,0.01884955592153876,0.08168140899333462,9.226423208333333,0.17978858333333333,-2.9174783749999995,-0.0013834804859237432,0.025747600627153127,0.07890034845143891,0.004185242275505535,0.03460894689811395,0.09561179095447825,0.006545998576438366,0.003413151136487984,0.004298393871879264,0.07493240715041259,0.1123008435424303,0.04289805451546657
-0.013962634015954637,0.011868238913561441,0.07330382858376185,9.07115125,-0.04086104166666667,-3.015544875,-0.0013834804859237432,0.025747600627153127,0.07890034845143891,0.004185242275505535,0.03460894689811395,0.09561179095447825,-0.00017208205195907284,-0.0066405077982944006,-0.0031578157976712546,-0.19874131459888975,0.03083104887657758,-0.005958459109847889
-0.013962634015954637,0.025132741228718346,0.07958701389094143,9.46341725,-0.0980665,-3.015544875,-0.0013834804859237432,0.025747600627153127,0.07890034845143891,0.004185242275505535,0.03460894689811395,0.09561179095447825,-0.006240695117443227,-0.004909950236140549,0.0010012600594516033,0.24658819943907398,0.10827601440976735,-0.05883097153883001
-0.0013962634015954637,0.03560471674068433,0.07749261878854824,8.964912541666667,-0.3105439166666667,-2.9093061666666666,-0.0013834804859237432,0.025747600627153127,0.07890034845143891,0.004185242275505535,0.03460894689811395,0.09561179095447825,-0.005805471231162253,0.01032990122870328,0.0037592235183850453,-0.1495766147507843,-0.05517187058204243,-0.014136337075327968
0.009773843811168246,0.014660765716752367,0.06981317007977318,9.259112041666667,-0.196133,-2.8929617499999996,-0.0013834804859237432,0.025747600627153127,0.07890034845143891,0.004185242275505535,0.03460894689811395,0.09561179095447825,-0.0009757510224818754,-0.0026441004786380206,-0.00435507640566286,0.05863627805963023,-0.14500046259526686,-0.006003730938332478
0.011868238913561441,0.02024581932313422,0.07888888219014369,9.136528916666666,0.0980665,-2.8929617499999996,-0.0013834804859237432,0.025747600627153127,0.07890034845143891,0.004185242275505535,0.03460894689811395,0.09561179095447825,0.0018072706805833715,0.004754764717501206,-0.00374909907263958,-0.09272519049396336,-0.014565322223596622,0.0713964366399538
0.008377580409572781,0.01117010721276371,0.08587019919812101,9.316317499999998,0.13075533333333333,-3.0482337083333335,-0.0013834804859237432,0.025747600627153127,0.07890034845143891,0.004185242275505535,0.03460894689811395,0.09561179095447825,0.011718437143239084,-0.014702456422630503,0.0029515950127686134,-0.42377663021238726,0.287103724174509,-1.340909947492183
-0.009075712110370514,0.013962634015954637,0.07749261878854824,9.618689208333333,0.18796079166666665,-3.219850083333333,-0.0013834804859237432,0.025747600627153127,0.07890034845143891,0.004185242275505535,0.03460894689811395,0.09561179095447825,0.006963422616341843,-0.011256314726016738,-0.0010970058291482185,0.050588505045615156,0.06349753315962975,-0.04673843621518203
-0.023038346126325153,0.03630284844148206,0.08028514559173915,9.5124505,0.06537766666666667,-3.138128,-0.0013834804859237432,0.025747600627153127,0.07890034845143891,0.004185242275505535,0.03460894689811395,0.09561179095447825,-0.004523006687490867,0.0046861649367693,-0.0007627495964511011,0.16902540588784953,0.21463287409048962,-0.03845755480800196
-0.013962634015954637,0.02722713633111154,0.08168140899333462,9.16921775,-0.35957716666666667,-3.0727503333333335,-0.0013834804859237432,0.025747600627153127,0.07890034845143891,0.004185242275505535,0.03460894689811395,0.09561179095447825,-0.008022531289217967,0.0014893094513813035,0.0026541506476788243,-0.20288477439005773,-0.03071339501684141,-0.03855684877898862
0.0020943951023931952,0.024434609527920613,0.07609635538695278,9.569655958333334,-0.29419949999999995,-3.0073726666666665,-0.0013834804859237432,0.025747600627153127,0.07890034845143891,0.004185242275505535,0.03460894689811395,0.09561179095447825,-0.005637119360563358,0.0013756607902818388,-0.0006357968896475246,0.21395197204520802,-0.10838230425545944,-0.046713510430364605
0.013264502315156905,0.021642082724729686,0.07749261878854824,9.136528916666666,-0.07354987499999999,-2.9256505833333333,-0.0013834804859237432,0.025747600627153127,0.07890034845143891,0.004185242275505535,0.03460894689811395,0.09561179095447825,-0.0006657047407313893,0.0030214292567692595,-0.0024425763848179975,-0.2232614646486452,-0.04709658149772537,0.09605573387895774
0.014660765716752367,0.016057029118347832,0.08237954069413235,9.577828166666666,0.024516625,-3.1299557916666663,-0.0013834804859237432,0.025747600627153127,0.07890034845143891,0.004185242275505535,0.03460894689811395,0.09561179095447825,0.004870743741256073,-0.002258669596259322,0.0015121433206590088,-0.010825937037170762,-0.0512721314924129,-0.0018901563119502064
0.004886921905584123,0.02024581932313422,0.07888888219014369,9.594172583333334,0.13075533333333333,-3.138128,-0.0013834804859237432,0.025747600627153127,0.07890034845143891,0.004185242275505535,0.03460894689811395,0.09561179095447825,0.009711764828443575,-0.01107284701915013,0.0056574368542595685,-0.04745550448814825,-0.06737676118635087,0.03919760765669389
-0.014660765716752367,0.04258603374866164,0.06771877497737998,9.684066875,0.269682875,-3.2280222916666665,-0.0013834804859237432,0.025747600627153127,0.07890034845143891,0.004185242275505535,0.03460894689811395,0.09561179095447825,0.0013964604821611049,-0.003389710570631954,-0.006752397073602181,0.24254409184465978,0.21464998014974304,-0.2219305142129177
-0.017453292519943295,0.04956735075663895,0.08098327729253688,9.193734375,-0.15527195833333335,-2.7948952499999997,-0.0013834804859237432,0.025747600627153127,0.07890034845143891,0.004185242275505535,0.03460894689811395,0.09561179095447825,-0.00617802232089753,0.012993443094501515,-0.004230597932414023,-0.1210806464326605,0.14905661066606593,0.022711195189571206
-0.004886921905584123,0.023736477827122883,0.08936085770210968,9.430728416666666,-0.4494714583333333,-2.852100708333333,-0.0013834804859237432,0.025747600627153127,0.07890034845143891,0.004185242275505535,0.03460894689811395,0.09561179095447825,-0.004205161659756164,-0.017225207281980074,0.0004769191333716633,-0.1045145497099033,0.15716332090351473,-1.4195467916009756
0.00767944870877505,0.0307177948351002,0.0879645943005142,9.1201845,-0.18796079166666665,-2.8194118749999997,-0.0013834804859237432,0.025747600627153127,0.07890034845143891,0.004185242275505535,0.03460894689811395,0.09561179095447825,-0.0029052282006492257,0.006669214236919504,-0.0017549998372537873,-0.1701863218291435,-0.11265801467752884,0.07592701761257636
0.012566370614359173,0.017453292519943295,0.09145525280450287,9.455245041666666,0.04086104166666667,-2.982856041666666,-0.0013834804859237432,0.025747600627153127,0.07890034845143891,0.004185242275505535,0.03460894689811395,0.09561179095447825,0.00094688857506408,-0.0034582315547925574,0.002364731686699324,0.009662042435008966,0.03415290692825125,0.038969335763392905
0.01117010721276371,0.024434609527920613,0.08656833089891874,9.430728416666666,-0.024516625,-3.0727503333333335,-0.0013834804859237432,0.025747600627153127,0.07890034845143891,0.004185242275505535,0.03460894689811395,0.09561179095447825,0.012941273942701358,-0.0013515201866397836,0.006464507416959811,-0.06799131807351748,-0.14921249234081693,0.043114467915579636
-0.014660765716752367,0.027925268031909273,0.07330382858376185,9.561483749999999,0.2778550833333333,-3.170816833333333,-0.0013834804859237432,0.025747600627153127,0.07890034845143891,0.004185242275505535,0.03460894689811395,0.09561179095447825,0.0045997187907366585,-0.012527837558037538,0.0010227040120458976,0.17720597394478987,0.16163523700549334,-0.17302722826521183
-0.023736477827122883,0.05235987755982988,0.07190756518216637,9.201906583333333,-0.04086104166666667,-2.8357562916666668,-0.0013834804859237432,0.025747600627153127,0.07890034845143891,0.004185242275505535,0.03460894689811395,0.09561179095447825,-0.007629500374899316,0.008656345959507669,-0.004077036197207018,0.11201138433329116,0.2187216224735695,-0.001451045668260724
-0.009075712110370514,0.03560471674068433,0.07958701389094143,8.97308475,-0.4739880833333333,-2.8439284999999996,-0.0013834804859237432,0.025747600627153127,0.07890034845143891,0.004185242275505535,0.03460894689811395,0.09561179095447825,-0.009390143408165347,0.009236662607715006,-0.0010368689452654202,-0.05162619384254101,-0.026676106509819216,-0.018157121180121454
0.009773843811168246,0.017453292519943295,0.08168140899333462,9.07115125,-0.416782625,-2.8194118749999997,-0.0013834804859237432,0.025747600627153127,0.07890034845143891,0.004185242275505535,0.03460894689811395,0.09561179095447825,-0.004243357500271599,-0.002302512393925918,0.0012219582117477625,-0.0026830926912884178,-0.21455722548921283,-0.018119411165970798
0.01884955592153876,0.02234021442552742,0.07888888219014369,9.07115125,0.016344416666666667,-2.7948952499999997,-0.0013834804859237432,0.025747600627153127,0.07890034845143891,0.004185242275505535,0.03460894689811395,0.09561179095447825,0.0023605498689204044,0.002598553189152806,-0.0009060034882379421,-0.14977313291593825,0.005788076905991467,0.16149938989070103
0.013962634015954637,0.016755160819145562,0.08098327729253688,9.36535075,0.008172208333333333,-3.1299557916666663,-0.0013834804859237432,0.025747600627153127,0.07890034845143891,0.004185242275505535,0.03460894689811395,0.09561179095447825,0.006619621517916047,0.0028376172899512555,0.004747626147675711,0.06676277218812013,-0.17361910999148877,-0.11653076996960464
0.0006981317007977319,0.01117010721276371,0.07120943348136866,9.226423208333333,0.35957716666666667,-2.9093061666666666,-0.0013834804859237432,0.025747600627153127,0.07890034845143891,0.004185242275505535,0.03460894689811395,0.09561179095447825,0.011758523378494295,-0.02325890169022583,-0.002303178796478119,-0.39728941877615814,0.38867656149061736,-1.3185660951589626
-0.020943951023931952,0.02583087292951608,0.07260569688296412,9.545139333333333,0.3105439166666667,-3.0645781249999997,-0.0013834804859237432,0.025747600627153127,0.07890034845143891,0.004185242275505535,0.03460894689811395,0.09561179095447825,0.006695065617760247,-0.007286959941922316,-0.0012007712542501893,0.22639788554605722,0.3004218437077384,-0.15283777549658492
-0.03420845333908886,0.04049163864626844,0.07539822368615504,9.087495666666666,-0.2860272916666666,-2.7703786249999998,-0.0013834804859237432,0.025747600627153127,0.07890034845143891,0.004185242275505535,0.03460894689811395,0.09561179095447825,-0.010863632384426086,0.017704554297957423,-0.007823058254798215,-0.0763059568804534,0.2269505124923478,0.04734535891872997
-0.012566370614359173,0.004886921905584123,0.09075712110370514,9.234595416666666,-0.73549875,-2.8766173333333334,-0.0013834804859237432,0.025747600627153127,0.07890034845143891,0.004185242275505535,0.03460894689811395,0.09561179095447825,-0.014052259434764576,-0.00396723410781868,0.0022935745929617145,-0.1374782618023048,-0.2638780173889525,0.050934764667522975
0.016057029118347832,0.013264502315156905,0.08587019919812101,9.504278291666665,-0.20430520833333332,-2.99102825,-0.0013834804859237432,0.025747600627153127,0.07890034845143891,0.004185242275505535,0.03460894689811395,0.09561179095447825,-0.0029527909239883457,0.00043154484238844954,-0.002926260907682729,0.08317128008522542,-0.12502708707138094,-0.03079989379620979
0.021642082724729686,0.012566370614359173,0.09145525280450287,9.332661916666666,0.04903325,-2.941995,-0.0013834804859237432,0.025747600627153127,0.07890034845143891,0.004185242275505535,0.03460894689811395,0.09561179095447825,0.005883116619036654,0.007063480157583036,0.008790052363707857,-0.18663748331693114,-0.03097596597600892,0.07540159207162947
0.009773843811168246,-0.0013962634015954637,0.07400196028455958,9.700411291666665,0.11441091666666667,-3.1054391666666663,-0.0013834804859237432,0.025747600627153127,0.07890034845143891,0.004185242275505535,0.03460894689811395,0.09561179095447825,0.008329774270659908,-0.0024569832967390234,0.0061732659372663815,-0.03147466363513792,-0.10810471364332754,0.05484091531130153
-0.006981317007977318,0.003490658503988659,0.06213372137099814,9.757616749999999,0.3350605416666666,-3.2280222916666665,-0.0013834804859237432,0.025747600627153127,0.07890034845143891,0.004185242275505535,0.03460894689811395,0.09561179095447825,0.0076846316946814035,-0.018912049289736218,-0.0011651474141487054,0.11590883244978327,0.11684074865042757,-0.0753769593443963
-0.02234021442552742,0.041189770347066175,0.0635299847725936,9.520622708333333,0.10623870833333333,-3.0890947499999997,-0.0013834804859237432,0.025747600627153127,0.07890034845143891,0.004185242275505535,0.03460894689811395,0.09561179095447825,-0.0013641740467229982,0.010122996589740696,-0.010756611484430991,0.2711787254064071,0.23926115575197454,-0.07935982807964234
-0.019547687622336492,0.020943951023931952,0.08517206749732328,8.97308475,-0.367749375,-2.941995,-0.0013834804859237432,0.025747600627153127,0.07890034845143891,0.004185242275505535,0.03460894689811395,0.09561179095447825,-0.009932591878548402,0.00670239234859552,4.9586324606808836e-05,-0.24788843685730375,0.09579619638745335,-0.01027659912832229
0.0,0.00767944870877505,0.08517206749732328,9.46341725,-0.5557101666666666,-2.9338227916666666,-0.0013834804859237432,0.025747600627153127,0.07890034845143891,0.004185242275505535,0.03460894689811395,0.09561179095447825,-0.007532742429838623,-0.02326130227336373,-0.005073144349812963,-0.16315605946078177,0.10305126376330347,-1.3460359013865981
0.01815142422074103,0.02024581932313422,0.09634217471008698,9.324489708333333,-0.15527195833333335,-2.999200458333333,-0.0013834804859237432,0.025747600627153127,0.07890034845143891,0.004185242275505535,0.03460894689811395,0.09561179095447825,0.0006592208483746785,0.0017841365805996317,0.0043521016470110694,-0.0680494648435784,-0.14149887583622772,0.1084014916207482
0.016755160819145562,0.016755160819145562,0.0879645943005142,9.455245041666666,0.13075533333333333,-3.2280222916666665,-0.0013834804859237432,0.025747600627153127,0.07890034845143891,0.004185242275505535,0.03460894689811395,0.09561179095447825,0.0061392465782972375,0.002384117827857085,0.0053770577690255925,-0.010961620761509446,-0.06360580418765541,-0.07971419012838173
0.004886921905584123,0.012566370614359173,0.0767944870877505,9.471589458333332,0.26151066666666667,-3.0809225416666663,-0.0013834804859237432,0.025747600627153127,0.07890034845143891,0.004185242275505535,0.03460894689811395,0.09561179095447825,0.01077219786041811,-0.0010022684314051136,0.0028132716944680182,-0.13734317659222522,0.010248741855506859,0.1001776699442261
-0.016755160819145562,0.014660765716752367,0.07120943348136866,9.741272333333333,0.24516625,-3.293399958333333,-0.0013834804859237432,0.025747600627153127,0.07890034845143891,0.004185242275505535,0.03460894689811395,0.09561179095447825,0.004935148188294165,-0.018994877549761063,-0.003963971087281127,0.356917399495338,0.23933009561647264,-0.23036457544987857
-0.02722713633111154,0.05235987755982988,0.07888888219014369,9.022118,-0.22882183333333334,-2.8439284999999996,-0.0013834804859237432,0.025747600627153127,0.07890034845143891,0.004185242275505535,0.03460894689811395,0.09561179095447825,-0.010896694589035782,0.011135038857151188,-0.00694925020660893,-0.039324404417113046,0.18978039847566625,0.01082418620803507
-0.004886921905584123,0.030019663134302467,0.09285151620609833,9.095667875,-0.6047434166666666,-2.8766173333333334,-0.0013834804859237432,0.025747600627153127,0.07890034845143891,0.004185242275505535,0.03460894689811395,0.09561179095447825,-0.012096757412212701,0.005789976624810177,-0.0028182419381084724,-0.039398039970564167,-0.1372655768366683,-0.05498804368069544
0.019547687622336492,0.01884955592153876,0.09843656981248018,9.16921775,-0.32688833333333334,-2.778550833333333,-0.0013834804859237432,0.025747600627153127,0.07890034845143891,0.004185242275505535,0.03460894689811395,0.09561179095447825,-0.003965248818022395,-0.0019264555090597927,0.0045849986052338395,-0.07202212525667155,-0.14980557668431746,0.10423384899719737
0.02722713633111154,0.023038346126325153,0.08936085770210968,9.308145291666667,-0.024516625,-2.999200458333333,-0.0013834804859237432,0.025747600627153127,0.07890034845143891,0.004185242275505535,0.03460894689811395,0.09561179095447825,0.005734201954370039,1.6605525999172828e-05,0.005006560996783327,-0.03527797260139901,-0.1330956553255681,0.06356814222115471
0.0153588974175501,0.023038346126325153,0.07888888219014369,9.373522958333332,0.24516625,-3.138128,-0.0013834804859237432,0.025747600627153127,0.07890034845143891,0.004185242275505535,0.03460894689811395,0.09561179095447825,0.014484765751188091,0.002659321980881286,0.015045410571573974,-0.055856052335626946,0.002280210908733749,-0.022297867559383174
-0.013264502315156905,0.01815142422074103,0.048869219055841226,9.479761666666667,0.24516625,-3.1054391666666663,-0.0013834804859237432,0.025747600627153127,0.07890034845143891,0.004185242275505535,0.03460894689811395,0.09561179095447825,0.0037960574400701325,-0.027186451304825235,-0.006022639846547469,-0.1739231077006602,0.4199522104084738,-1.394022646100114
-0.02234021442552742,0.03700098014227979,0.05515240436302082,9.349006333333334,0.17978858333333333,-3.0564059166666664,-0.0013834804859237432,0.025747600627153127,0.07890034845143891,0.004185242275505535,0.03460894689811395,0.09561179095447825,0.00010132341369583695,-0.005569646380207049,-0.003807425781974952,0.1731165332083238,0.2070579003630997,-0.19757850507091132
-0.02234021442552742,0.048869219055841226,0.06283185307179587,8.997601374999999,-0.22882183333333334,-2.672312125,-0.0013834804859237432,0.025747600627153127,0.07890034845143891,0.004185242275505535,0.03460894689811395,0.09561179095447825,-0.007788275245186818,0.013459115088253365,-0.014048505914302511,0.001637054955668772,0.14508953756027582,-0.0016088498741189381
-0.006981317007977318,0.021642082724729686,0.09075712110370514,8.989429166666666,-0.5148491249999999,-2.680484333333333,-0.0013834804859237432,0.025747600627153127,0.07890034845143891,0.004185242275505535,0.03460894689811395,0.09561179095447825,-0.008023748891560644,0.005932398259570575,-0.004133547246265116,-0.2397269783189225,-0.35802001835490066,0.16967164808012883
0.009075712110370514,0.009773843811168246,0.0991347015132779,9.46341725,0.20430520833333332,-3.0318892916666664,-0.0013834804859237432,0.025747600627153127,0.07890034845143891,0.004185242275505535,0.03460894689811395,0.09561179095447825,0.0025986307679754642,-0.0052430360537931,0.006198798684867492,0.1076380918285523,-0.03524756657749519,-0.06332977198149142
0.0041887902047863905,0.02024581932313422,0.08726646259971647,9.242767624999999,0.2778550833333333,-2.9174783749999995,-0.0013834804859237432,0.025747600627153127,0.07890034845143891,0.004185242275505535,0.03460894689811395,0.09561179095447825,0.008340554295306146,0.004486369200795294,0.007612198062994646,-0.19047332546607432,0.19000417323440738,0.19408176248733774
-0.012566370614359173,0.011868238913561441,0.07120943348136866,9.618689208333333,-0.0980665,-3.317916583333333,-0.0013834804859237432,0.025747600627153127,0.07890034845143891,0.004185242275505535,0.03460894689811395,0.09561179095447825,-0.0010841520524091418,-0.002034728806584937,-0.003618108016308699,-0.010884096599435936,0.002157708938237389,-0.1532272896405364
-0.010471975511965976,0.016057029118347832,0.07819075048934597,9.635033625,-0.0980665,-3.023717083333333,-0.0013834804859237432,0.025747600627153127,0.07890034845143891,0.004185242275505535,0.03460894689811395,0.09561179095447825,-0.0069494932356369155,-0.012416983672699139,0.003918694683014397,-0.03948868873433205,0.30457844305586446,-0.005676629894483536
0.003490658503988659,0.041189770347066175,0.07120943348136866,9.7085835,-0.7028099166666667,-3.023717083333333,-0.0013834804859237432,0.025747600627153127,0.07890034845143891,0.004185242275505535,0.03460894689811395,0.09561179095447825,-0.015089240191435817,-0.001874297277433805,-0.014364534008306371,0.2673197907449225,-0.071798422526795,-0.148546111503817
0.033510321638291124,0.04468042885105484,0.09983283321407566,9.16921775,-0.5557101666666666,-2.7376897916666665,-0.0013834804859237432,0.025747600627153127,0.07890034845143891,0.004185242275505535,0.03460894689811395,0.09561179095447825,-0.00926298016839882,0.01893123642733447,-0.007508139108837389,-0.09655937446872849,-0.22781504233881297,0.11274146783918834
0.05235987755982988,0.006981317007977318,0.114493598930828,9.357178541666666,-0.0980665,-2.974683833333333,-0.0013834804859237432,0.025747600627153127,0.07890034845143891,0.004185242275505535,0.03460894689811395,0.09561179095447825,0.018570272041181595,-0.031180484407868005,0.013633545006506214,-0.4473100364765102,-0.037076808545325614,-1.2138846347207974
0.020943951023931952,0.0307177948351002,0.0942477796076938,9.757616749999999,0.6864655000000001,-3.211677875,-0.0013834804859237432,0.025747600627153127,0.07890034845143891,0.004185242275505535,0.03460894689811395,0.09561179095447825,0.027277526755640408,0.0035003619899986434,0.014063885434120833,0.23863204692156248,-0.10015005324551658,-0.04260083041403141
-0.033510321638291124,0.023038346126325153,0.06562437987498679,9.275456458333332,0.8907707083333333,-3.138128,-0.0013834804859237432,0.025747600627153127,0.07890034845143891,0.004185242275505535,0.03460894689811395,0.09561179095447825,0.009002151962294265,-6.248772508193326e-05,0.0009397720600275511,-0.055726204575305575,0.3744155790918974,-0.018074873071529638
-0.05166174585903216,0.023736477827122883,0.06422811647339133,9.381695166666667,0.14709974999999997,-3.113611375,-0.0013834804859237432,0.025747600627153127,0.07890034845143891,0.004185242275505535,0.03460894689811395,0.09561179095447825,0.002072535983395878,-0.009075760202675578,0.007589166387537727,0.009544556406356956,0.31751129000239386,-0.21013938943834268
-0.05585053606381855,0.041887902047863905,0.048869219055841226,9.357178541666666,-0.48216029166666663,-2.705000958333333,-0.0013834804859237432,0.025747600627153127,0.07890034845143891,0.004185242275505535,0.03460894689811395,0.09561179095447825,-0.01900808210863557,0.016782354205788903,-0.015449318681730469,0.2017596411362681,0.13745945399534154,0.0840462468074367
-0.01815142422074103,0.008377580409572781,0.07958701389094143,8.948568125,-0.7518431666666666,-2.8847895416666667,-0.0013834804859237432,0.025747600627153127,0.07890034845143891,0.004185242275505535,0.03460894689811395,0.09561179095447825,-0.028215992158492242,-0.003593835212091033,-0.018050454308899417,-0.18649780041915237,-0.17423618675893518,0.001976905977169416
0.03839724354387525,0.016057029118347832,0.11519173063162574,9.316317499999998,-0.4004382083333333,-2.9011339583333333,-0.0013834804859237432,0.025747600627153127,0.07890034845143891,0.004185242275505535,0.03460894689811395,0.09561179095447825,-0.003660104139095698,0.0030480325148238533,0.0030299970915360344,-0.010863896099678158,-0.33826460483011844,0.09991179181549675
0.046076692252650306,0.009773843811168246,0.1096066770252439,9.332661916666666,0.2778550833333333,-3.113611375,-0.0013834804859237432,0.025747600627153127,0.07890034845143891,0.004185242275505535,0.03460894689811395,0.09561179095447825,0.015617566638618751,-0.006510440823476284,0.011518555171212136,-0.10481982508569844,-0.08042175924321067,-0.010075429029827294
0.014660765716752367,0.023038346126325153,0.08656833089891874,9.536967125,0.44129925,-3.1054391666666663,-0.0013834804859237432,0.025747600627153127,0.07890034845143891,0.004185242275505535,0.03460894689811395,0.09561179095447825,0.012520810968873895,-0.00217977500292024,0.007046593489759318,-0.05982740304874878,0.24695723949841283,0.0553737989880846
-0.010471975511965976,0.027925268031909273,0.07190756518216637,9.651378041666666,-0.04903325,-3.2280222916666665,-0.0013834804859237432,0.025747600627153127,0.07890034845143891,0.004185242275505535,0.03460894689811395,0.09561179095447825,0.0007232691646863599,-0.009554131964754492,0.01049823577075011,0.05050499850925598,0.1291983036515025,-0.1853993955699923
-0.011868238913561441,0.04677482395344803,0.050963614158234416,9.545139333333333,-0.3023717083333333,-2.8684451249999996,-0.0013834804859237432,0.025747600627153127,0.07890034845143891,0.004185242275505535,0.03460894689811395,0.09561179095447825,-0.015246885500922501,-0.015542547455005905,-0.017411226954572565,0.03489030468366997,0.19520848694741377,-1.3641696734073756
0.011868238913561441,0.039793506945470715,0.08168140899333462,8.9240515,-0.024516625,-2.7213453750000003,-0.0013834804859237432,0.025747600627153127,0.07890034845143891,0.004185242275505535,0.03460894689811395,0.09561179095447825,0.002852610985037756,0.00281513343911899,0.00045342082392149305,-0.1741789065299742,-0.19422260851763126,0.23538566204654482
0.006283185307179587,0.03420845333908886,0.08098327729253688,9.26728425,0.367749375,-3.2035056666666666,-0.0013834804859237432,0.025747600627153127,0.07890034845143891,0.004185242275505535,0.03460894689811395,0.09561179095447825,0.019916814697174087,-0.008364179143068747,0.005627940411739356,0.03023655354274626,-0.0346214175433759,-0.06676173871949063
-0.033510321638291124,0.050963614158234416,0.06981317007977318,9.201906583333333,0.44129925,-3.0809225416666663,-0.0013834804859237432,0.025747600627153127,0.07890034845143891,0.004185242275505535,0.03460894689811395,0.09561179095447825,0.010248320736720546,0.011086239556117318,-0.0013737746906261927,-0.07611181320505699,0.14139191611546892,0.03132760766807553
-0.05445427266222308,0.029321531433504733,0.07260569688296412,9.349006333333334,0.16344416666666667,-3.1544724166666662,-0.0013834804859237432,0.025747600627153127,0.07890034845143891,0.004185242275505535,0.03460894689811395,0.09561179095447825,-0.0020098443371493516,-0.007036013943653449,0.005694779937009423,0.013931040606305374,0.5175607093154847,-0.25894305613557467
-0.05026548245743669,0.04328416544945937,0.06073745796940267,9.316317499999998,-0.8662540833333333,-2.6477955,-0.0013834804859237432,0.025747600627153127,0.07890034845143891,0.004185242275505535,0.03460894689811395,0.09561179095447825,-0.022736011876494787,0.0066437917262271795,-0.008071179687823947,0.34068541179825346,-0.001864886648461948,-0.01801908617169514
-0.004886921905584123,0.030019663134302467,0.0767944870877505,8.629852,-0.8580818749999999,-2.623278875,-0.0013834804859237432,0.025747600627153127,0.07890034845143891,0.004185242275505535,0.03460894689811395,0.09561179095447825,-0.025759791859264643,0.01645042308050654,-0.007396472258931361,-0.3255213890125356,-0.08395732266026448,0.1491023736180593
0.04677482395344803,-0.0020943951023931952,0.09145525280450287,9.275456458333332,-0.6864655000000001,-2.9338227916666666,-0.0013834804859237432,0.025747600627153127,0.07890034845143891,0.004185242275505535,0.03460894689811395,0.09561179095447825,-0.002626420035253258,-0.00043284078717864224,0.0077020436755923846,-0.011095046207517018,-0.3785476492983843,0.0017703241821881125
0.05235987755982988,-0.0013962634015954637,0.07609635538695278,9.291800875,0.07354987499999999,-2.9501672083333332,-0.0013834804859237432,0.025747600627153127,0.07890034845143891,0.004185242275505535,0.03460894689811395,0.09561179095447825,0.007532465852594666,-0.001099239810201366,0.0017061711058674758,-0.1538620269951177,-0.0881515474122808,0.04657084404300423
0.03700098014227979,0.0013962634015954637,0.07260569688296412,9.594172583333334,0.2533384583333333,-3.0564059166666664,-0.0013834804859237432,0.025747600627153127,0.07890034845143891,0.004185242275505535,0.03460894689811395,0.09561179095447825,0.015821711909078936,-0.000789406916388758,-0.00619007909244831,-0.023206707776872112,-0.1247419454111961,-0.06770411976348918
0.005585053606381855,0.0027925268031909274,0.08517206749732328,9.635033625,0.5066769166666666,-2.9338227916666666,-0.0013834804859237432,0.025747600627153127,0.07890034845143891,0.004185242275505535,0.03460894689811395,0.09561179095447825,0.009860218173083418,-0.03100911304487224,-0.002780872246386022,-0.1307408866328748,0.4061844667104935,-1.3260871852253922
-0.016057029118347832,0.016755160819145562,0.09634217471008698,9.340834124999999,0.45764366666666667,-2.8357562916666668,-0.0013834804859237432,0.025747600627153127,0.07890034845143891,0.004185242275505535,0.03460894689811395,0.09561179095447825,0.01493574106668733,0.006284065560611085,0.004949415714149005,0.12804223064658066,-0.02671174486936874,0.05112576298953369
-0.046076692252650306,0.004886921905584123,0.08656833089891874,9.079323458333333,0.5148491249999999,-2.9501672083333332,-0.0013834804859237432,0.025747600627153127,0.07890034845143891,0.004185242275505535,0.03460894689811395,0.09561179095447825,0.008225365781143676,-0.0015985665251648633,0.005209241316674939,-0.346041702759142,0.43553072876524085,0.07934025679382516
-0.06283185307179587,0.008377580409572781,0.07609635538695278,9.765788958333333,-0.35140495833333335,-3.1217835833333334,-0.0013834804859237432,0.025747600627153127,0.07890034845143891,0.004185242275505535,0.03460894689811395,0.09561179095447825,-0.004645206156176427,-0.004960469739747645,0.012689173241699568,0.3038428876889134,0.12938067069726183,-0.13691198639688654
-0.05305800926062762,0.01815142422074103,0.050963614158234416,9.152873333333332,-0.6047434166666666,-2.8602729166666667,-0.0013834804859237432,0.025747600627153127,0.07890034845143891,0.004185242275505535,0.03460894689811395,0.09561179095447825,-0.029997996236200586,0.0026648495877361553,-0.019288523504655302,-0.22739949301021234,0.14957932175047345,0.05511789946450719
0.006981317007977318,0.013264502315156905,0.08936085770210968,9.602344791666665,-0.8989429166666666,-2.982856041666666,-0.0013834804859237432,0.025747600627153127,0.07890034845143891,0.004185242275505535,0.03460894689811395,0.09561179095447825,-0.018245566337835254,-0.012508599254722105,-0.000625025256613011,0.1689878190460263,-0.39085871350063217,-0.018099130366759957
0.04328416544945937,0.03769911184307752,0.09075712110370514,9.259112041666667,-0.11441091666666667,-2.9583394166666666,-0.0013834804859237432,0.025747600627153127,0.07890034845143891,0.004185242275505535,0.03460894689811395,0.09561179095447825,-0.006276701406996412,0.003963587752682317,-0.00840329114653392,0.005629529774145875,-0.1582311591629489,0.03516632397331872
0.05585053606381855,0.030019663134302467,0.1075122819228507,9.242767624999999,0.20430520833333332,-3.0400614999999998,-0.0013834804859237432,0.025747600627153127,0.07890034845143891,0.004185242275505535,0.03460894689811395,0.09561179095447825,0.015750339878507533,-0.006729391508752129,0.023320465024150444,0.017885905875065715,0.026126755916958257,0.018858165422751382
0.024434609527920613,0.0439822971502571,0.060039326268604934,9.201906583333333,0.15527195833333335,-3.0890947499999997,-0.0013834804859237432,0.025747600627153127,0.07890034845143891,0.004185242275505535,0.03460894689811395,0.09561179095447825,0.006690917518305447,0.014844370907380488,-0.010946398678337195,-0.10468877967955498,-0.10838958425017747,0.022879299760304006
0.01117010721276371,0.014660765716752367,0.08237954069413235,9.406211791666665,0.3759215833333333,-3.1463002083333333,-0.0013834804859237432,0.025747600627153127,0.07890034845143891,0.004185242275505535,0.03460894689811395,0.09561179095447825,0.0035106541698964556,-0.007008496814738105,-0.0032828849032835975,-0.02305561624387063,0.0958474353175339,-0.06305139413104269
0.003490658503988659,0.028623399732707,0.08866272600131193,9.447072833333333,0.18796079166666665,-3.0318892916666664,-0.0013834804859237432,0.025747600627153127,0.07890034845143891,0.004185242275505535,0.03460894689811395,0.09561179095447825,0.011392721970935911,-0.021185187769842694,0.0003933245626264413,0.07326140778711057,0.16686878382153283,-1.3138092442486093
-0.021642082724729686,0.027925268031909273,0.09215338450530061,8.638024208333333,0.4903325,-2.8847895416666667,-0.0013834804859237432,0.025747600627153127,0.07890034845143891,0.004185242275505535,0.03460894689811395,0.09561179095447825,0.013134484471757435,0.01115277541106435,0.0012476913088191172,-0.3704804370681917,0.2554227346809587,0.10441496860286706
-0.04817108735504349,0.006283185307179587,0.08936085770210968,9.373522958333332,-0.016344416666666667,-3.1054391666666663,-0.0013834804859237432,0.025747600627153127,0.07890034845143891,0.004185242275505535,0.03460894689811395,0.09561179095447825,0.004871990066408802,-0.0008161461921104338,0.016519572522178942,0.06671568627739555,0.25168540833985253,-0.006502905688735447
-0.05794493116621174,0.00767944870877505,0.056548667764616284,9.234595416666666,-0.5148491249999999,-3.1054391666666663,-0.0013834804859237432,0.025747600627153127,0.07890034845143891,0.004185242275505535,0.03460894689811395,0.09561179095447825,-0.027313937110649316,0.005122019089426303,-0.013000075021636175,-0.17018749111047857,0.07594939135648553,-0.1207567914629612
-0.003490658503988659,-0.0020943951023931952,0.08237954069413235,9.569655958333334,-0.661948875,-2.8766173333333334,-0.0013834804859237432,0.025747600627153127,0.07890034845143891,0.004185242275505535,0.03460894689811395,0.09561179095447825,-0.01331527140752496,-0.0069727754290797115,0.0010829237373912034,-0.211165221727498,-0.034820092360971125,0.21823899775787417
0.023038346126325153,0.011868238913561441,0.08028514559173915,9.986438583333333,-0.5883989999999999,-3.3260887916666664,-0.0013834804859237432,0.025747600627153127,0.07890034845143891,0.004185242275505535,0.03460894689811395,0.09561179095447825,-0.0036518871677092986,-0.020435800725955567,0.0013340891437968873,0.5489966568187707,-0.3169386550665235,-0.35298145964704336
0.0307177948351002,0.05235987755982988,0.07749261878854824,8.883190458333333,0.04903325,-2.631451083333333,-0.0013834804859237432,0.025747600627153127,0.07890034845143891,0.004185242275505535,0.03460894689811395,0.09561179095447825,0.0082548287531604,0.015352876000206303,0.003770434304873392,-0.3905971616715323,0.067236949726103,0.2845240637662495
0.013962634015954637,0.02234021442552742,0.06981317007977318,9.659550249999999,-0.08172208333333333,-3.211677875,-0.0013834804859237432,0.025747600627153127,0.07890034845143891,0.004185242275505535,0.03460894689811395,0.09561179095447825,0.002359113898712323,-0.009755889401555948,-0.004020700578710984,0.02195336985895908,-0.018494140200797114,-0.04238535645281481
0.009075712110370514,0.041887902047863905,0.07749261878854824,9.610517,-0.04086104166666667,-3.138128,-0.0013834804859237432,0.025747600627153127,0.07890034845143891,0.004185242275505535,0.03460894689811395,0.09561179095447825,-0.0096893095488702,0.006220746423138395,-0.016884049728458684,0.01773628190856763,-0.12508481659244172,-0.05476338810685849
0.028623399732707,0.029321531433504733,0.1117010721276371,9.569655958333334,0.21247741666666667,-3.0400614999999998,-0.0013834804859237432,0.025747600627153127,0.07890034845143891,0.004185242275505535,0.03460894689811395,0.09561179095447825,0.01265910491123783,-0.029978617053207358,0.00422005187525238,0.14896433923741634,-0.12551702226435493,0.07262214286108383
0.003490658503988659,0.09005898940290741,0.10332349171806432,9.26728425,0.465815875,-3.195333458333333,-0.0013834804859237432,0.025747600627153127,0.07890034845143891,0.004185242275505535,0.03460894689811395,0.09561179095447825,0.01466530868185659,-0.004552567146927805,0.0034338944756717284,-0.07229914288698568,0.42179645722763703,-1.5090766864111393
-0.029321531433504733,0.05445427266222308,0.09983283321407566,8.7279185,0.2533384583333333,-2.5905900416666663,-0.0013834804859237432,0.025747600627153127,0.07890034845143891,0.004185242275505535,0.03460894689811395,0.09561179095447825,0.011870718306103858,0.0119357367080575,0.019391716807529425,-0.37021577953371443,0.2598137388715424,0.4031556169123256
-0.05305800926062762,0.030019663134302467,0.0614355896702004,9.46341725,-0.26151066666666667,-3.4078108749999996,-0.0013834804859237432,0.025747600627153127,0.07890034845143891,0.004185242275505535,0.03460894689811395,0.09561179095447825,-0.014847666079039899,-0.012840902309974131,-0.0047983234018870715,0.13229086237205753,0.12500846296357337,-0.32833021426932757
-0.023038346126325153,0.056548667764616284,0.07120943348136866,9.193734375,-0.5066769166666666,-2.7622064166666664,-0.0013834804859237432,0.025747600627153127,0.07890034845143891,0.004185242275505535,0.03460894689811395,0.09561179095447825,-0.01849215989338495,0.01449059528715313,-0.007355582956788954,0.03844676150541059,0.07157190922258226,0.10887847196273072
0.013962634015954637,0.02722713633111154,0.08517206749732328,9.112012291666666,-0.6456044583333332,-2.99102825,-0.0013834804859237432,0.025747600627153127,0.07890034845143891,0.004185242275505535,0.03460894689811395,0.09561179095447825,-0.006749850711691196,-0.007682358981006547,0.004230544759680188,0.25067465122421334,-0.21483378774842302,-0.23042278195079635
0.02722713633111154,0.04258603374866164,0.0767944870877505,8.605335375,-0.21247741666666667,-2.5415567916666664,-0.0013834804859237432,0.025747600627153127,0.07890034845143891,0.004185242275505535,0.03460894689811395,0.09561179095447825,0.004396487053549745,0.025072648875038864,0.011637319608270712,-0.02704605426986594,-0.014188791566570519,0.002256815235241747
0.01815142422074103,-0.006981317007977318,0.05375614096142535,8.654368624999998,-0.17978858333333333,-2.557901208333333,-0.0013834804859237432,0.025747600627153127,0.07890034845143891,0.004185242275505535,0.03460894689811395,0.09561179095447825,-0.0002336431696189999,0.0024102029480580073,-0.001511826277430252,-0.6281291165012043,-0.16096443178337294,0.38546628403398403
0.01884955592153876,-0.011868238913561441,0.056548667764616284,9.9047165,0.14709974999999997,-3.342433208333333,-0.0013834804859237432,0.025747600627153127,0.07890034845143891,0.004185242275505535,0.03460894689811395,0.09561179095447825,0.0009532293687533706,-0.01847312258453164,-0.008288651987859236,0.1933993607342727,-0.22669113634629295,-0.09615599938310525
0.016755160819145562,0.025132741228718346,0.07330382858376185,9.5124505,0.6047434166666666,-3.162644625,-0.0013834804859237432,0.025747600627153127,0.07890034845143891,0.004185242275505535,0.03460894689811395,0.09561179095447825,0.00929428475494023,-0.0036192967289750805,-0.018455670682876627,0.177224586668858,0.08736377728135153,-0.26327665820307067
-0.0013962634015954637,0.032812189937493394,0.1096066770252439,9.152873333333332,0.43312704166666666,-2.6477955,-0.0013834804859237432,0.025747600627153127,0.07890034845143891,0.004185242275505535,0.03460894689811395,0.09561179095447825,0.017131533583000007,-0.004970089875530056,0.013873392762283979,0.026000041615266808,0.23068867850147984,0.002673252666664382
-0.03560471674068433,0.04258603374866164,0.08237954069413235,9.095667875,-0.024516625,-2.6641399166666666,-0.0013834804859237432,0.025747600627153127,0.07890034845143891,0.004185242275505535,0.03460894689811395,0.09561179095447825,-0.005095468330649985,-0.004650084296070319,0.005161821281470712,-0.5240719827573516,0.4411466099517542,-1.0414934961804592
-0.031415926535897934,-0.005585053606381855,0.07260569688296412,9.447072833333333,-0.3759215833333333,-2.9174783749999995,-0.0013834804859237432,0.025747600627153127,0.07890034845143891,0.004185242275505535,0.03460894689811395,0.09561179095447825,-0.012845678804987595,-0.014987549502331695,-0.004598624119914027,-0.1907669056390224,0.0470947912467449,0.10806858335625404
-0.005585053606381855,0.024434609527920613,0.08168140899333462,9.822994416666667,-0.465815875,-3.1463002083333333,-0.0013834804859237432,0.025747600627153127,0.07890034845143891,0.004185242275505535,0.03460894689811395,0.09561179095447825,-0.007583511869366912,0.0030264199266846364,-0.013734268132730302,0.11189605520076927,-0.20256519352295072,-0.18570667425720427
0.009075712110370514,0.01884955592153876,0.10890854532444616,9.594172583333334,-0.057205458333333334,-2.7867230416666664,-0.0013834804859237432,0.025747600627153127,0.07890034845143891,0.004185242275505535,0.03460894689811395,0.09561179095447825,0.0004418457855209545,-0.005947491040793198,0.00574501781826852,-0.027315527347339358,0.05835175058599618,0.1043546760834939
0.008377580409572781,0.0307177948351002,0.09773843811168245,9.643205833333333,-0.17161637500000002,-3.0073726666666665,-0.0013834804859237432,0.025747600627153127,0.07890034845143891,0.004185242275505535,0.03460894689811395,0.09561179095447825,0.005195927141295941,0.0020176899329883194,0.017058881097128123,0.09973991025901838,0.17773450653973155,-0.19366150523695833
-0.0020943951023931952,0.02652900463031381,0.0635299847725936,9.438900625,-0.5230213333333333,-2.631451083333333,-0.0013834804859237432,0.025747600627153127,0.07890034845143891,0.004185242275505535,0.03460894689811395,0.09561179095447825,-0.008180895191868032,0.0004534607212281056,0.00696977589087188,-0.10477081376026083,-0.07112831783850346,0.25558316321103797
0.013962634015954637,0.02583087292951608,0.04956735075663895,9.643205833333333,-0.3759215833333333,-3.1544724166666662,-0.0013834804859237432,0.025747600627153127,0.07890034845143891,0.004185242275505535,0.03460894689811395,0.09561179095447825,-0.007027360804788537,0.007322745473654646,-0.009250225577739862,-0.014897554680556938,-0.18555404417112795,-0.26748053129393096
0.028623399732707,0.01117010721276371,0.06771877497737998,9.667722458333333,0.0,-2.631451083333333,-0.0013834804859237432,0.025747600627153127,0.07890034845143891,0.004185242275505535,0.03460894689811395,0.09561179095447825,0.008912890863264682,-0.007142012605155695,-0.005043941136514576,0.021835127513162668,0.006027416191941763,0.0592874173848015
0.010471975511965976,0.02583087292951608,0.07819075048934597,9.618689208333333,-0.008172208333333333,-2.7622064166666664,-0.0013834804859237432,0.025747600627153127,0.07890034845143891,0.004185242275505535,0.03460894689811395,0.09561179095447825,0.011292950157159334,-0.0146759695758119,0.003299924008808938,0.27131775325608476,-0.047038293870204875,-0.09934257908313866
-0.011868238913561441,0.05515240436302082,0.07120943348136866,9.07115125,0.08989429166666667,-2.574245625,-0.0013834804859237432,0.025747600627153127,0.07890034845143891,0.004185242275505535,0.03460894689811395,0.09561179095447825,0.002577060821183659,0.02077142690923932,-0.00826361080116268,-0.05180200976815679,0.02656101374353162,0.28016823999315527
-0.017453292519943295,0.013264502315156905,0.08726646259971647,9.16921775,0.04086104166666667,-3.1463002083333333,-0.0013834804859237432,0.025747600627153127,0.07890034845143891,0.004185242275505535,0.03460894689811395,0.09561179095447825,-0.005802195002456037,-0.031478746810588924,-0.010330777211257186,-0.5616795108219108,0.17833838315914202,-1.077693828167015
-0.006981317007977318,0.023736477827122883,0.114493598930828,9.553311541666666,0.269682875,-3.342433208333333,-0.0013834804859237432,0.025747600627153127,0.07890034845143891,0.004185242275505535,0.03460894689811395,0.09561179095447825,0.005477354469631126,-0.0009179408592368863,-0.0004961116297159954,0.11585120978246936,0.1810276095529068,-0.1244680294209933
-0.01815142422074103,0.02583087292951608,0.11588986233242347,9.316317499999998,-0.08989429166666667,-3.1054391666666663,-0.0013834804859237432,0.025747600627153127,0.07890034845143891,0.004185242275505535,0.03460894689811395,0.09561179095447825,0.0010515313266277334,-0.0060498926103623625,0.016997172813400133,0.10371689132251408,0.10796342388821885,-0.08741011609771894
-0.02024581932313422,0.03839724354387525,0.08168140899333462,9.103840083333333,-0.3023717083333333,-2.941995,-0.0013834804859237432,0.025747600627153127,0.07890034845143891,0.004185242275505535,0.03460894689811395,0.09561179095447825,-0.018099457683927133,0.0191292674871908,0.0001604924486761564,0.05462034473931853,0.12443688937223459,-0.10002011615649577
0.016057029118347832,0.0,0.08168140899333462,8.989429166666666,-0.5475379583333333,-2.754034208333333,-0.0013834804859237432,0.025747600627153127,0.07890034845143891,0.004185242275505535,0.03460894689811395,0.09561179095447825,-0.009401600047584873,-0.004371616676032877,-0.0026831506767841175,-0.2970211921569254,-0.3047557992700634,0.19398404163844182
0.03490658503988659,0.008377580409572781,0.08656833089891874,9.577828166666666,0.06537766666666667,-3.1544724166666662,-0.0013834804859237432,0.025747600627153127,0.07890034845143891,0.004185242275505535,0.03460894689811395,0.09561179095447825,0.012479566464326021,-0.011093243780705263,0.005385168817024408,0.1403832299369925,-0.08814211818306564,-0.0877278406343127
0.009773843811168246,0.0307177948351002,0.07609635538695278,9.291800875,0.24516625,-2.99102825,-0.0013834804859237432,0.025747600627153127,0.07890034845143891,0.004185242275505535,0.03460894689811395,0.09561179095447825,0.013350085332361547,-0.015437597067588063,0.011847874140622452,-0.05150959720081379,0.13305041154365757,0.12123016691468806
-0.016755160819145562,0.06213372137099814,0.05166174585903216,9.389867375,-0.016344416666666667,-3.2443667083333327,-0.0013834804859237432,0.025747600627153127,0.07890034845143891,0.004185242275505535,0.03460894689811395,0.09561179095447825,-0.009724233526096726,0.029787412893935567,-0.008991198551605541,0.4918818350141929,0.010545195161428919,-0.4347795424695628
0.0027925268031909274,0.0027925268031909274,0.06981317007977318,8.401030166666667,-0.032688833333333334,-2.3862848333333333,-0.0013834804859237432,0.025747600627153127,0.07890034845143891,0.004185242275505535,0.03460894689811395,0.09561179095447825,-0.004872760193887957,-0.011051235278193957,-0.014105406789940187,-0.685141086639895,-0.2148248468841792,0.3779739312700508
0.012566370614359173,0.025132741228718346,0.09843656981248018,9.765788958333333,0.4004382083333333,-3.1544724166666662,-0.0013834804859237432,0.025747600627153127,0.07890034845143891,0.004185242275505535,0.03460894689811395,0.09561179095447825,0.015710026546233814,-0.022547316747958627,0.01455089959564628,0.189613161997764,0.30029935155126664,-0.04208916376189239
-0.01884955592153876,0.07051130178057091,0.06911503837897544,9.381695166666667,-0.196133,-3.0809225416666663,-0.0013834804859237432,0.025747600627153127,0.07890034845143891,0.004185242275505535,0.03460894689811395,0.09561179095447825,-0.0008297929199126592,-0.0014714412254788155,-0.005083287548463593,-0.014270460088709774,0.4584005553495646,-1.412011705841088
-0.02234021442552742,0.023038346126325153,0.08028514559173915,8.605335375,-0.6210878333333334,-2.5252123749999997,-0.0013834804859237432,0.025747600627153127,0.07890034845143891,0.004185242275505535,0.03460894689811395,0.09561179095447825,-0.023541707833468466,0.0035363765704135297,-0.008158562840632478,-0.44813633294429656,-0.11273628223976123,0.2638798800165575
0.024434609527920613,0.016057029118347832,0.09634217471008698,9.496106083333332,-0.392266,-3.0645781249999997,-0.0013834804859237432,0.025747600627153127,0.07890034845143891,0.004185242275505535,0.03460894689811395,0.09561179095447825,0.008718637661734257,0.0006404184237350805,-0.0008938134774448157,0.1280937045681389,-0.476594109504196,0.030616843686780332
0.006981317007977318,0.0153588974175501,0.09773843811168245,9.234595416666666,0.563882375,-3.138128,-0.0013834804859237432,0.025747600627153127,0.07890034845143891,0.004185242275505535,0.03460894689811395,0.09561179095447825,0.019680540320931,-0.012588865298576335,0.021758021591296358,-0.20286817560080544,0.3902549512183142,0.026844778081998658
-0.032114058236695664,0.04049163864626844,0.05445427266222308,9.635033625,-0.21247741666666667,-3.2035056666666666,-0.0013834804859237432,0.025747600627153127,0.07890034845143891,0.004185242275505535,0.03460894689811395,0.09561179095447825,-0.0112372648453702,0.029117531780129168,-0.0021360196826350985,0.520362889809829,0.17817738994483182,-0.386107260299328
-0.009773843811168246,-0.017453292519943295,0.05864306286700947,8.588990958333333,-0.563882375,-2.4434902916666665,-0.0013834804859237432,0.025747600627153127,0.07890034845143891,0.004185242275505535,0.03460894689811395,0.09561179095447825,-0.018034165312989944,-0.02057657762183758,-0.003205153015904133,-0.6360597073383882,-0.21820869717649824,0.26330181241529704
0.02583087292951608,0.023736477827122883,0.06492624817418906,9.855683249999998,-0.122583125,-2.982856041666666,-0.0013834804859237432,0.025747600627153127,0.07890034845143891,0.004185242275505535,0.03460894689811395,0.09561179095447825,0.009669589202935534,0.003521412488819568,-0.005170958504044725,0.16083074507806197,-0.31676488991378965,0.2021871571331423
0.006981317007977318,0.016755160819145562,0.07539822368615504,9.528794916666666,0.5148491249999999,-3.3996386666666667,-0.0013834804859237432,0.025747600627153127,0.07890034845143891,0.004185242275505535,0.03460894689811395,0.09561179095447825,0.01739086422967937,-0.005156782796568173,0.010448435745947726,0.21795009909451424,0.4110810167892182,-0.4431361649086572
-0.027925268031909273,0.02722713633111154,0.05445427266222308,9.087495666666666,-0.3023717083333333,-2.5252123749999997,-0.0013834804859237432,0.025747600627153127,0.07890034845143891,0.004185242275505535,0.03460894689811395,0.09561179095447825,-0.02099393379707566,0.014582767291489426,-0.018283604124649456,-0.33365458250017604,0.26766104562154364,0.18198038565245747
0.013962634015954637,-0.0020943951023931952,0.09075712110370514,9.749444541666666,-0.83356525,-2.9011339583333333,-0.0013834804859237432,0.025747600627153127,0.07890034845143891,0.004185242275505535,0.03460894689811395,0.09561179095447825,-0.009997059687413278,-0.006824033678861542,-0.01186247368572254,0.1647762245215933,-0.7424321555647754,0.2550410205389443
0.03420845333908886,0.011868238913561441,0.114493598930828,9.414383999999998,0.6537766666666667,-3.4241552916666667,-0.0013834804859237432,0.025747600627153127,0.07890034845143891,0.004185242275505535,0.03460894689811395,0.09561179095447825,0.02149744027556878,-0.05359565659250522,0.019026931107917103,-0.6692883557444892,0.5024666353672385,-1.3906872427569144
-0.009773843811168246,0.06283185307179587,0.08447393579652555,9.994610791666668,0.26151066666666667,-2.982856041666666,-0.0013834804859237432,0.025747600627153127,0.07890034845143891,0.004185242275505535,0.03460894689811395,0.09561179095447825,0.009665634576868837,0.016098280202528282,-0.003368671257659964,0.4019077681127059,0.484183451687388,0.014949668584983644
-0.029321531433504733,0.0307177948351002,0.09075712110370514,9.185562166666665,-0.7028099166666667,-3.023717083333333,-0.0013834804859237432,0.025747600627153127,0.07890034845143891,0.004185242275505535,0.03460894689811395,0.09561179095447825,-0.020976983904536128,-0.007038712979135037,-0.0059918034826730365,0.16504199428956381,-0.39475901977228317,-0.27107330878944846
0.012566370614359173,0.04468042885105484,0.10332349171806432,8.850501625,0.08989429166666667,-2.4925235416666665,-0.0013834804859237432,0.025747600627153127,0.07890034845143891,0.004185242275505535,0.03460894689811395,0.09561179095447825,0.004722668315003245,-0.006218961305715599,4.1770958140596995e-05,-0.8196206374236081,-0.06816098837737242,0.5832310616059971
0.003490658503988659,0.057246799465414,0.10262536001726656,10.484943291666665,0.22882183333333334,-3.6693215416666662,-0.0013834804859237432,0.025747600627153127,0.07890034845143891,0.004185242275505535,0.03460894689811395,0.09561179095447825,0.013005144381830695,0.004280311967598795,0.023092374160123625,1.0396699851073945,0.3247427935384547,-0.6468882943638854
-0.023038346126325153,0.048869219055841226,0.056548667764616284,8.401030166666667,-0.416782625,-2.3862848333333333,-0.0013834804859237432,0.025747600627153127,0.07890034845143891,0.004185242275505535,0.03460894689811395,0.09561179095447825,-0.013526377523927395,0.017453034080990016,-0.002796333305882389,-0.17015193575153809,-0.042456518632994815,0.13722419677324119
0.0041887902047863905,0.013962634015954637,0.06213372137099814,8.736090708333332,-0.32688833333333334,-2.672312125,-0.0013834804859237432,0.025747600627153127,0.07890034845143891,0.004185242275505535,0.03460894689811395,0.09561179095447825,-0.016099746699017335,-0.013422356484159318,-0.023702792607811603,-0.8647080774182421,-0.34556048938104195,0.4804116414463127
0.03630284844148206,0.041189770347066175,0.10890854532444616,10.460426666666667,0.367749375,-3.6448049166666663,-0.0013834804859237432,0.025747600627153127,0.07890034845143891,0.004185242275505535,0.03460894689811395,0.09561179095447825,0.023061230731610986,-0.019338712305057466,0.024807442131640278,1.01510932638439,0.2141870172283016,-0.5484956302972661
-0.009773843811168246,0.08028514559173915,0.060039326268604934,8.425546791666665,-0.057205458333333334,-2.557901208333333,-0.0013834804859237432,0.025747600627153127,0.07890034845143891,0.004185242275505535,0.03460894689811395,0.09561179095447825,0.00265301520355855,0.04469897013485854,0.01241282383071857,-0.24780018864197037,0.2356305472970854,0.014718739148614423
-0.014660765716752367,-0.009075712110370514,0.03490658503988659,8.915879291666666,-0.5230213333333333,-2.59876225,-0.0013834804859237432,0.025747600627153127,0.07890034845143891,0.004185242275505535,0.03460894689811395,0.09561179095447825,-0.015281109095284994,-0.010963402442862044,-0.031305415854725994,-0.4523139484561081,-0.5289301922606726,0.5125362531417279
0.0153588974175501,0.012566370614359173,0.09773843811168245,9.814822208333332,0.53936575,-3.6366327083333334,-0.0013834804859237432,0.025747600627153127,0.07890034845143891,0.004185242275505535,0.03460894689811395,0.09561179095447825,0.00737102613799782,-0.05875087595730664,0.016338593574310886,0.22915673385612248,0.6532195931757867,-1.5794550462695518
-0.00767944870877505,0.07819075048934597,0.07051130178057091,8.499096666666667,-0.2778550833333333,-2.7867230416666664,-0.0013834804859237432,0.025747600627153127,0.07890034845143891,0.004185242275505535,0.03460894689811395,0.09561179095447825,0.015429296183307808,0.030567880044550515,0.02365496464274634,-0.11669602690899876,0.15810185789849565,-0.12786274680100967
-0.03839724354387525,0.017453292519943295,0.023736477827122883,8.7279185,-0.5883989999999999,-2.5415567916666664,-0.0013834804859237432,0.025747600627153127,0.07890034845143891,0.004185242275505535,0.03460894689811395,0.09561179095447825,-0.024254268150753086,0.0029980703121860654,-0.04116652732007487,-0.5829114763814848,-0.496111598507565,0.46362948846389845
0.009773843811168246,0.01117010721276371,0.1054178868204575,9.888372083333332,0.40861041666666664,-3.4813607499999994,-0.0013834804859237432,0.025747600627153127,0.07890034845143891,0.004185242275505535,0.03460894689811395,0.09561179095447825,-0.0007742905555157927,-0.030125260166485257,-0.0026358188350762276,0.46738083054599955,0.35267454405500076,-0.3568759095805627
0.011868238913561441,0.07190756518216637,0.11100294042683936,8.948568125,-0.29419949999999995,-2.778550833333333,-0.0013834804859237432,0.025747600627153127,0.07890034845143891,0.004185242275505535,0.03460894689811395,0.09561179095447825,0.008476324519503128,0.030744365701962054,0.023606617612455024,0.06690981050905867,0.24683985734992722,-0.20578010000628225
-0.005585053606381855,0.010471975511965976,0.0635299847725936,8.809640583333332,-0.784532,-2.378112625,-0.0013834804859237432,0.025747600627153127,0.07890034845143891,0.004185242275505535,0.03460894689811395,0.09561179095447825,-0.01174566099732152,0.022208045336762742,-0.01660053510473257,-0.06826161382154929,-0.6559593834149001,0.3039458968962193
0.01815142422074103,-0.033510321638291124,0.09634217471008698,8.940395916666665,0.5311935416666667,-2.999200458333333,-0.0013834804859237432,0.025747600627153127,0.07890034845143891,0.004185242275505535,0.03460894689811395,0.09561179095447825,0.002862950549157422,-0.02208846230347069,-0.009865754190312711,-0.4441420206978143,-0.002716958831879463,0.11990262279497071
0.012566370614359173,0.010471975511965976,0.1165879940332212,9.822994416666667,0.53936575,-3.2525389166666665,-0.0013834804859237432,0.025747600627153127,0.07890034845143891,0.004185242275505535,0.03460894689811395,0.09561179095447825,0.019164918565544135,-0.0012941481118798137,0.026693812607932594,0.12389533767604784,0.7003281083250144,-0.25950895146529096
-0.02583087292951608,0.013264502315156905,0.06283185307179587,9.569655958333334,-0.8580818749999999,-2.7458620000000002,-0.0013834804859237432,0.025747600627153127,0.07890034845143891,0.004185242275505535,0.03460894689811395,0.09561179095447825,-0.004606029036214125,0.020552765773111718,0.006430813436970659,0.4303250738669379,-0.3159277881071645,0.026039921570691894
-0.016755160819145562,-0.027925268031909273,0.05026548245743669,8.703401874999999,-0.220649625,-2.811239666666667,-0.0013834804859237432,0.025747600627153127,0.07890034845143891,0.004185242275505535,0.03460894689811395,0.09561179095447825,-0.012725948038898142,-0.019409514007294088,-0.021293195895113554,-0.8202282909064146,-0.3247420502881023,0.3241965755240944
0.008377580409572781,0.01117010721276371,0.09285151620609833,10.337843541666667,0.43312704166666666,-3.4731885416666666,-0.0013834804859237432,0.025747600627153127,0.07890034845143891,0.004185242275505535,0.03460894689811395,0.09561179095447825,0.004795304854007027,-0.03903588956598678,0.0006320794138868974,-0.0652551118454127,0.6620017862727163,-1.5513782349696845
-0.009773843811168246,0.03560471674068433,0.09983283321407566,9.7085835,-0.3840937916666667,-2.6641399166666666,-0.0013834804859237432,0.025747600627153127,0.07890034845143891,0.004185242275505535,0.03460894689811395,0.09561179095447825,0.0006722668192743054,0.022601140484857285,0.0257101034366061,0.5978951247002334,-0.0018194491271835375,0.09604429588317866
-0.01117010721276371,-0.009075712110370514,0.048869219055841226,8.507268875,-0.3759215833333333,-2.8684451249999996,-0.0013834804859237432,0.025747600627153127,0.07890034845143891,0.004185242275505535,0.03460894689811395,0.09561179095447825,-0.020633329935339163,-0.0031177132438559387,-0.033996583222315906,-0.8894818911837401,-0.34567404424784237,0.2017045133267422
0.0307177948351002,-0.0027925268031909274,0.1165879940332212,10.280638083333333,0.318716125,-3.2852277500000002,-0.0013834804859237432,0.025747600627153127,0.07890034845143891,0.004185242275505535,0.03460894689811395,0.09561179095447825,0.013519109918796955,-0.03047472467855065,0.004239969096121098,0.23442394306335906,0.2217877567090502,0.026876012647964298
0.003490658503988659,0.05794493116621174,0.10821041362364843,9.80665,-0.122583125,-3.3506054166666663,-0.0013834804859237432,0.025747600627153127,0.07890034845143891,0.004185242275505535,0.03460894689811395,0.09561179095447825,0.0075620253061716835,0.018220673604689767,0.022776226518362794,0.9087647839843593,-0.02278034663422209,-0.4672480702755321
-0.011868238913561441,0.02234021442552742,0.06213372137099814,7.984247541666667,-0.07354987499999999,-2.427145875,-0.0013834804859237432,0.025747600627153127,0.07890034845143891,0.004185242275505535,0.03460894689811395,0.09561179095447825,-0.0142651116952548,0.005207922639600254,-0.024774861944896767,-0.9384996600729485,-0.2393210544099578,0.44753039538007455
0.016755160819145562,0.01117010721276371,0.1117010721276371,9.855683249999998,0.40861041666666664,-3.334261,-0.0013834804859237432,0.025747600627153127,0.07890034845143891,0.004185242275505535,0.03460894689811395,0.09561179095447825,0.00920745781817091,-0.02701954422590821,0.010245439306069398,0.042469879620037315,0.1854090818415551,-0.06675313633339774
-0.0013962634015954637,0.06562437987498679,0.09145525280450287,9.765788958333333,0.04086104166666667,-3.211677875,-0.0013834804859237432,0.025747600627153127,0.07890034845143891,0.004185242275505535,0.03460894689811395,0.09561179095447825,0.012467560538308995,0.014331487197194294,0.03839824056952732,1.0149699045944949,0.12503337300128803,-0.44667992065461454
-0.02652900463031381,0.03700098014227979,0.014660765716752367,7.730909083333333,-0.20430520833333332,-2.3290793749999996,-0.0013834804859237432,0.025747600627153127,0.07890034845143891,0.004185242275505535,0.03460894689811395,0.09561179095447825,-0.01230515683374344,0.027432814085871133,-0.03295542124419699,-1.1264593005815853,-0.34842219792971546,0.4963529896388327
-0.0020943951023931952,-0.017453292519943295,0.08028514559173915,9.978266375,0.4985047083333333,-3.334261,-0.0013834804859237432,0.025747600627153127,0.07890034845143891,0.004185242275505535,0.03460894689811395,0.09561179095447825,0.0027396127561799114,-0.03042843088559067,-0.0024288563722357046,0.15674097352683908,0.2020096572436306,-0.07567177947609237
-0.00767944870877505,0.04328416544945937,0.08517206749732328,9.659550249999999,0.0980665,-3.195333458333333,-0.0013834804859237432,0.025747600627153127,0.07890034845143891,0.004185242275505535,0.03460894689811395,0.09561179095447825,0.0031577203176419797,-0.026671274585187355,0.029472073337007878,0.09164335484430036,0.5303598919628105,-1.55606502992703
-0.024434609527920613,0.04956735075663895,0.032114058236695664,8.539957708333333,-0.465815875,-2.3699404166666667,-0.0013834804859237432,0.025747600627153127,0.07890034845143891,0.004185242275505535,0.03460894689811395,0.09561179095447825,-0.014312449246215051,0.0316010071126055,-0.027195657426916667,-0.4522114946200953,-0.3038238074667812,0.37405216789934864
0.0041887902047863905,-0.013962634015954637,0.08656833089891874,9.438900625,0.14709974999999997,-3.1299557916666663,-0.0013834804859237432,0.025747600627153127,0.07890034845143891,0.004185242275505535,0.03460894689811395,0.09561179095447825,-0.009910404840218408,-0.017843969562509058,-0.015302857396634999,-0.18261723506302827,0.2218730566811226,0.018145814891514116
