angular_velocity_x,angular_velocity_y,angular_velocity_z,linear_acceleration_x,linear_acceleration_y,linear_acceleration_z,fake_gyro_bias_x,fake_gyro_bias_y,fake_gyro_bias_z,fake_acc_bias_x,fake_acc_bias_y,fake_acc_bias_z,fake_gyro_noise_x,gyro_noise_y,gyro_noise_z,fake_acc_noise_x,fake_acc_noise_y,fake_acc_noise_z
0.0020943951023931952,0.017453292519943295,0.07819075048934597,9.046634625,0.4739880833333333,-3.6284604999999996,-0.0023385296658855067,0.021840284873160486,0.0765650560874087,-0.024149956574087843,0.1771509739585469,0.09237674279494507,0.0,0.0,0.0,0.0,0.0,0.0
-0.0020943951023931952,0.01884955592153876,0.07819075048934597,9.062979041666667,0.4004382083333333,-3.6202882916666663,-0.0023385296658855067,0.021840284873160486,0.0765650560874087,-0.024149956574087843,0.1771509739585469,0.09237674279494507,0.0,0.0,0.0,0.0,0.0,0.0
-0.006981317007977318,0.01884955592153876,0.07819075048934597,9.112012291666666,0.4494714583333333,-3.67749375,-0.0023385296658855067,0.021840284873160486,0.0765650560874087,-0.024149956574087843,0.1771509739585469,0.09237674279494507,0.0,0.0,0.0,0.0,0.0,0.0
-0.0041887902047863905,0.016755160819145562,0.07749261878854824,9.054806833333332,0.43312704166666666,-3.6448049166666663,-0.0023385296658855067,0.021840284873160486,0.0765650560874087,-0.024149956574087843,0.1771509739585469,0.09237674279494507,0.0,0.0,0.0,0.0,0.0,0.0
-0.0020943951023931952,0.02024581932313422,0.07819075048934597,9.079323458333333,0.3759215833333333,-3.6611493333333334,-0.0023385296658855067,0.021840284873160486,0.0765650560874087,-0.024149956574087843,0.1771509739585469,0.09237674279494507,0.0,0.0,0.0,0.0,0.0,0.0
-0.0013962634015954637,0.019547687622336492,0.08028514559173915,9.136528916666666,0.392266,-3.6693215416666662,-0.0023385296658855067,0.021840284873160486,0.0765650560874087,-0.024149956574087843,0.1771509739585469,0.09237674279494507,0.0,0.0,0.0,0.0,0.0,0.0
-0.0013962634015954637,0.019547687622336492,0.07749261878854824,9.062979041666667,0.392266,-3.6448049166666663,-0.0023385296658855067,0.021840284873160486,0.0765650560874087,-0.024149956574087843,0.1771509739585469,0.09237674279494507,0.0,0.0,0.0,0.0,0.0,0.0
-0.003490658503988659,0.019547687622336492,0.07958701389094143,9.013945791666666,0.34323275000000003,-3.6121160833333334,-0.0023385296658855067,0.021840284873160486,0.0765650560874087,-0.024149956574087843,0.1771509739585469,0.09237674279494507,0.0,0.0,0.0,0.0,0.0,0.0
-0.0027925268031909274,0.020943951023931952,0.07539822368615504,9.046634625,0.3759215833333333,-3.6366327083333334,-0.0023385296658855067,0.021840284873160486,0.0765650560874087,-0.024149956574087843,0.1771509739585469,0.09237674279494507,0.0,0.0,0.0,0.0,0.0,0.0
-0.0006981317007977319,0.017453292519943295,0.0767944870877505,9.079323458333333,0.392266,-3.6529771249999996,-0.0023385296658855067,0.021840284873160486,0.0765650560874087,-0.024149956574087843,0.1771509739585469,0.09237674279494507,0.0,0.0,0.0,0.0,0.0,0.0
-0.0027925268031909274,0.023736477827122883,0.0767944870877505,9.112012291666666,0.42495483333333334,-3.6611493333333334,-0.0023385296658855067,0.021840284873160486,0.0765650560874087,-0.024149956574087843,0.1771509739585469,0.09237674279494507,0.0,0.0,0.0,0.0,0.0,0.0
-0.0006981317007977319,0.023038346126325153,0.0767944870877505,9.087495666666666,0.3840937916666667,-3.6611493333333334,-0.0023385296658855067,0.021840284873160486,0.0765650560874087,-0.024149956574087843,0.1771509739585469,0.09237674279494507,0.0,0.0,0.0,0.0,0.0,0.0
0.0006981317007977319,0.01884955592153876,0.08098327729253688,9.038462416666666,0.43312704166666666,-3.6529771249999996,-0.0023385296658855067,0.021840284873160486,0.0765650560874087,-0.024149956574087843,0.1771509739585469,0.09237674279494507,0.0,0.0,0.0,0.0,0.0,0.0
0.0006981317007977319,0.02024581932313422,0.07888888219014369,9.07115125,0.4004382083333333,-3.6202882916666663,-0.0023385296658855067,0.021840284873160486,0.0765650560874087,-0.024149956574087843,0.1771509739585469,0.09237674279494507,0.0,0.0,0.0,0.0,0.0,0.0
-0.0020943951023931952,0.02234021442552742,0.07609635538695278,9.095667875,0.392266,-3.6366327083333334,-0.0023385296658855067,0.021840284873160486,0.0765650560874087,-0.024149956574087843,0.1771509739585469,0.09237674279494507,0.0,0.0,0.0,0.0,0.0,0.0
-0.003490658503988659,0.01884955592153876,0.0767944870877505,9.112012291666666,0.4494714583333333,-3.6366327083333334,-0.0023385296658855067,0.021840284873160486,0.0765650560874087,-0.024149956574087843,0.1771509739585469,0.09237674279494507,0.0,0.0,0.0,0.0,0.0,0.0
-0.0013962634015954637,0.023736477827122883,0.07958701389094143,9.054806833333332,0.45764366666666667,-3.6366327083333334,-0.0023385296658855067,0.021840284873160486,0.0765650560874087,-0.024149956574087843,0.1771509739585469,0.09237674279494507,0.0,0.0,0.0,0.0,0.0,0.0
-0.0027925268031909274,0.01815142422074103,0.07400196028455958,9.054806833333332,0.392266,-3.6448049166666663,-0.0023385296658855067,0.021840284873160486,0.0765650560874087,-0.024149956574087843,0.1771509739585469,0.09237674279494507,0.0,0.0,0.0,0.0,0.0,0.0
-0.0020943951023931952,0.021642082724729686,0.07400196028455958,9.095667875,0.4494714583333333,-3.6448049166666663,-0.0023385296658855067,0.021840284873160486,0.0765650560874087,-0.024149956574087843,0.1771509739585469,0.09237674279494507,0.0,0.0,0.0,0.0,0.0,0.0
-0.0020943951023931952,0.01815142422074103,0.07609635538695278,9.062979041666667,0.3759215833333333,-3.6611493333333334,-0.0023385296658855067,0.021840284873160486,0.0765650560874087,-0.024149956574087843,0.1771509739585469,0.09237674279494507,0.0,0.0,0.0,0.0,0.0,0.0
0.0006981317007977319,0.016057029118347832,0.07539822368615504,9.144701125,0.367749375,-3.6856659583333333,-0.0023385296658855067,0.021840284873160486,0.0765650560874087,-0.024149956574087843,0.1771509739585469,0.09237674279494507,0.0018959708543713502,0.0010164679550661046,0.0004250546546774116,-0.000362840050451261,-0.015817822757744654,-0.030174230141437337
-0.0027925268031909274,0.014660765716752367,0.0747000919853573,9.144701125,0.4004382083333333,-3.6284604999999996,-0.0023385296658855067,0.021840284873160486,0.0765650560874087,-0.024149956574087843,0.1771509739585469,0.09237674279494507,-0.0001761916582042296,-0.0029458184691735483,-0.000451652000009818,0.052649193675097766,0.0004858026717009148,0.0026663499994062593
-0.0027925268031909274,0.02024581932313422,0.07539822368615504,9.038462416666666,0.4004382083333333,-3.6366327083333334,-0.0023385296658855067,0.021840284873160486,0.0765650560874087,-0.024149956574087843,0.1771509739585469,0.09237674279494507,-0.0014124480780245338,0.0017951678062287433,-0.00015089984545351456,-0.00464842002494256,0.03730873111905654,-0.0013564771834625809
0.0,0.016755160819145562,0.07609635538695278,9.046634625,0.32688833333333334,-3.6366327083333334,-0.0023385296658855067,0.021840284873160486,0.0765650560874087,-0.024149956574087843,0.1771509739585469,0.09237674279494507,0.0009653647534668498,-9.40933217617227e-05,-0.0015653264862713623,-0.020841305670718728,-0.019974751314141587,0.0026071866368342846
-0.0020943951023931952,0.016755160819145562,0.07888888219014369,9.087495666666666,0.367749375,-3.6448049166666663,-0.0023385296658855067,0.021840284873160486,0.0765650560874087,-0.024149956574087843,0.1771509739585469,0.09237674279494507,-0.00027956062215583346,-0.0028891800121558894,-0.00030169405676157724,0.0036727099025390267,-0.007871198545074272,-0.005424553648380073
-0.0013962634015954637,0.02234021442552742,0.07958701389094143,9.079323458333333,0.3840937916666667,-3.6366327083333334,-0.0023385296658855067,0.021840284873160486,0.0765650560874087,-0.024149956574087843,0.1771509739585469,0.09237674279494507,-0.0006830765371372863,2.95782819410332e-05,-0.0010282665962390433,-0.0002669983692845364,0.012600620673541096,0.015061720598584728
0.0,0.02234021442552742,0.08168140899333462,9.079323458333333,0.35957716666666667,-3.6693215416666662,-0.0023385296658855067,0.021840284873160486,0.0765650560874087,-0.024149956574087843,0.1771509739585469,0.09237674279494507,-0.0010086646274995671,-0.0004105484166386423,0.0013719480247262551,-0.016739401424266047,-0.01183769862772199,-0.013527341267288044
0.0020943951023931952,0.023038346126325153,0.07958701389094143,9.112012291666666,0.3840937916666667,-3.6448049166666663,-0.0023385296658855067,0.021840284873160486,0.0765650560874087,-0.024149956574087843,0.1771509739585469,0.09237674279494507,0.0007491674924345466,-0.0003478403152481364,0.0004522213110684686,0.02007687248004997,-0.028124686638873277,-0.009518597458217258
0.0006981317007977319,0.023736477827122883,0.07888888219014369,9.07115125,0.44129925,-3.6284604999999996,-0.0023385296658855067,0.021840284873160486,0.0765650560874087,-0.024149956574087843,0.1771509739585469,0.09237674279494507,-0.0017540250019892902,0.0003502181517096969,-2.8127705816097158e-05,-0.00042603608009595013,0.03306977175640713,-0.0012532808051561983
0.0041887902047863905,0.023038346126325153,0.07888888219014369,9.07115125,0.3759215833333333,-3.6284604999999996,-0.0023385296658855067,0.021840284873160486,0.0765650560874087,-0.024149956574087843,0.1771509739585469,0.09237674279494507,0.004082601592740819,-0.0057315078298189725,0.0017156949696753524,0.05598317122311242,-0.16766707324257799,-0.10478727615099684
-0.0020943951023931952,0.023736477827122883,0.07958701389094143,9.095667875,0.43312704166666666,-3.6611493333333334,-0.0023385296658855067,0.021840284873160486,0.0765650560874087,-0.024149956574087843,0.1771509739585469,0.09237674279494507,-0.0010756417209073696,0.0031867813238060766,0.0007752117857401211,-0.00030954376915359413,0.0005013694147203315,-0.005446523652098971
0.0,0.017453292519943295,0.07819075048934597,9.095667875,0.43312704166666666,-3.6529771249999996,-0.0023385296658855067,0.021840284873160486,0.0765650560874087,-0.024149956574087843,0.1771509739585469,0.09237674279494507,0.0014108030021207757,-0.0015694874732542392,-0.0002966612197631713,0.03219074522051515,0.029132035345382924,-0.017741132661796884
-0.0027925268031909274,0.020943951023931952,0.07888888219014369,9.030290208333332,0.3759215833333333,-3.6202882916666663,-0.0023385296658855067,0.021840284873160486,0.0765650560874087,-0.024149956574087843,0.1771509739585469,0.09237674279494507,0.00015016524486804607,0.0016308571318774234,-0.000498623631339123,-0.020753705511771046,-0.011987945880422596,0.0026210149847393166
-0.003490658503988659,0.017453292519943295,0.07958701389094143,9.07115125,0.4004382083333333,-3.6284604999999996,-0.0023385296658855067,0.021840284873160486,0.0765650560874087,-0.024149956574087843,0.1771509739585469,0.09237674279494507,5.5659934673619404e-06,-0.0007523041037660222,0.00017218033938446112,-0.016814177212135708,0.012751025539514783,0.006709052989853807
-0.0027925268031909274,0.01884955592153876,0.07958701389094143,9.103840083333333,0.3759215833333333,-3.6448049166666663,-0.0023385296658855067,0.021840284873160486,0.0765650560874087,-0.024149956574087843,0.1771509739585469,0.09237674279494507,-0.00040347907798138507,-0.00046359662039648097,0.0003082340824631707,0.015909854389211584,-0.02412290464060911,0.002816679334806803
-0.0020943951023931952,0.019547687622336492,0.07888888219014369,9.07115125,0.42495483333333334,-3.6529771249999996,-0.0023385296658855067,0.021840284873160486,0.0765650560874087,-0.024149956574087843,0.1771509739585469,0.09237674279494507,0.0006257906892919459,0.0007679479501277187,-0.00012680353861865574,-0.025005072927324207,0.004610033160882174,0.014889211521098334
-0.003490658503988659,0.01815142422074103,0.07888888219014369,9.1201845,0.416782625,-3.6856659583333333,-0.0023385296658855067,0.021840284873160486,0.0765650560874087,-0.024149956574087843,0.1771509739585469,0.09237674279494507,0.0008122963346144765,0.0009781793442563372,0.0019927184601157204,0.02009770488701459,-0.040361063263521964,-0.021709182498707704
-0.004886921905584123,0.016057029118347832,0.07539822368615504,9.079323458333333,0.4985047083333333,-3.6448049166666663,-0.0023385296658855067,0.021840284873160486,0.0765650560874087,-0.024149956574087843,0.1771509739585469,0.09237674279494507,-0.002512976954176252,-0.001900935542220241,0.0005571593347970453,0.0035923855088835018,0.06171777895785226,-0.021978592357258252
0.0,0.019547687622336492,0.07400196028455958,9.07115125,0.3759215833333333,-3.6039438749999997,-0.0023385296658855067,0.021840284873160486,0.0765650560874087,-0.024149956574087843,0.1771509739585469,0.09237674279494507,0.0014792756343886156,0.0008523270361345934,0.0018831616906562476,-0.012657149405314892,0.01695222356969702,0.03134835073420583
-0.0027925268031909274,0.01815142422074103,0.07051130178057091,9.095667875,0.34323275000000003,-3.6693215416666662,-0.0023385296658855067,0.021840284873160486,0.0765650560874087,-0.024149956574087843,0.1771509739585469,0.09237674279494507,0.002191176588917324,-0.002922951745731633,0.0030202513945774344,0.08449277386248376,-0.23560042227324848,-0.17136634674763043
-0.004886921905584123,0.0153588974175501,0.07260569688296412,9.112012291666666,0.42495483333333334,-3.67749375,-0.0023385296658855067,0.021840284873160486,0.0765650560874087,-0.024149956574087843,0.1771509739585469,0.09237674279494507,-0.00014911100817325887,-0.002530947144514764,-0.0021167721383800117,0.02411752222236281,0.008631441913162835,-0.021960920486860408
-0.004886921905584123,0.02024581932313422,0.0767944870877505,9.062979041666667,0.40861041666666664,-3.6366327083333334,-0.0023385296658855067,0.021840284873160486,0.0765650560874087,-0.024149956574087843,0.1771509739585469,0.09237674279494507,-0.0016232934547960574,0.0018157422231978588,0.0005878445038581517,0.0037456523209117203,0.016768757885952168,0.006751104436481076
-0.0013962634015954637,0.016755160819145562,0.07539822368615504,9.054806833333332,0.3759215833333333,-3.6529771249999996,-0.0023385296658855067,0.021840284873160486,0.0765650560874087,-0.024149956574087843,0.1771509739585469,0.09237674279494507,-0.0004203141248999762,3.34232491657548e-05,0.0006339026587770344,-0.020832036897078906,0.0005438588679469973,-0.0014380492671054188
-0.0006981317007977319,0.016057029118347832,0.0747000919853573,9.095667875,0.3759215833333333,-3.6529771249999996,-0.0023385296658855067,0.021840284873160486,0.0765650560874087,-0.024149956574087843,0.1771509739585469,0.09237674279494507,-0.0003519963625005892,-0.004102233856989199,-0.0016387436499871065,-0.00046509965742530936,-0.028019553686365047,0.0028699054672017233
0.0,0.024434609527920613,0.07749261878854824,9.095667875,0.43312704166666666,-3.6611493333333334,-0.0023385296658855067,0.021840284873160486,0.0765650560874087,-0.024149956574087843,0.1771509739585469,0.09237674279494507,0.002194136584045646,0.000967423071404764,-0.0011868624792363577,0.003758994594436932,0.02894042132500628,-0.0013114808177025067
-0.0041887902047863905,0.02234021442552742,0.08028514559173915,9.087495666666666,0.3759215833333333,-3.6611493333333334,-0.0023385296658855067,0.021840284873160486,0.0765650560874087,-0.024149956574087843,0.1771509739585469,0.09237674279494507,0.0009685512336204158,0.0002594841856138505,0.00025856528045278864,-0.004433017800601806,0.0005278605749887273,-0.001338563686662561
-0.006283185307179587,0.021642082724729686,0.07958701389094143,9.095667875,0.3759215833333333,-3.6611493333333334,-0.0023385296658855067,0.021840284873160486,0.0765650560874087,-0.024149956574087843,0.1771509739585469,0.09237674279494507,-0.002233449875718795,0.001775607973184148,-5.8780571596288215e-05,0.003549119829830653,-0.0119248566153613,-0.005397401182299359
-0.0020943951023931952,0.01815142422074103,0.08028514559173915,9.087495666666666,0.4004382083333333,-3.6529771249999996,-0.0023385296658855067,0.021840284873160486,0.0765650560874087,-0.024149956574087843,0.1771509739585469,0.09237674279494507,0.001272554096853393,-0.0014518436447940669,0.0002146591616024014,-0.008531844382345392,0.00855543812285331,-0.005545654006269526
-0.0041887902047863905,0.020943951023931952,0.07958701389094143,9.103840083333333,0.3840937916666667,-3.6448049166666663,-0.0023385296658855067,0.021840284873160486,0.0765650560874087,-0.024149956574087843,0.1771509739585469,0.09237674279494507,-0.0006041388477557166,-0.0004018195156701842,0.000501601124356278,-0.020763242326401306,0.00044709560576304167,0.00678043750671528
-0.0027925268031909274,0.021642082724729686,0.07888888219014369,9.144701125,0.3840937916666667,-3.6611493333333334,-0.0023385296658855067,0.021840284873160486,0.0765650560874087,-0.024149956574087843,0.1771509739585469,0.09237674279494507,0.001234672462067347,-0.005992471070651824,0.002143024543142838,0.14984907065577346,-0.28564895963691694,-0.2471912818766393
-0.003490658503988659,0.02024581932313422,0.07958701389094143,9.095667875,0.44129925,-3.6366327083333334,-0.0023385296658855067,0.021840284873160486,0.0765650560874087,-0.024149956574087843,0.1771509739585469,0.09237674279494507,-0.0009199706063310741,-0.000816430748758373,-0.0001452973241864144,0.016005842135349873,0.03306816185551618,-0.005421197621834909
-0.0020943951023931952,0.021642082724729686,0.08028514559173915,9.062979041666667,0.3759215833333333,-3.6284604999999996,-0.0023385296658855067,0.021840284873160486,0.0765650560874087,-0.024149956574087843,0.1771509739585469,0.09237674279494507,-0.00016571007360284524,0.0009517428010591978,0.00012840235500712546,-0.020817420288877512,-0.003669599639549148,0.0191468772333149
-0.0013962634015954637,0.02024581932313422,0.08028514559173915,9.103840083333333,0.3840937916666667,-3.6693215416666662,-0.0023385296658855067,0.021840284873160486,0.0765650560874087,-0.024149956574087843,0.1771509739585469,0.09237674279494507,-0.0005797612942561527,0.0005605723665985176,0.0018658473647882431,0.015957161847929054,-0.024159407921968284,-0.0014846262046819389
0.0,0.01884955592153876,0.07609635538695278,9.07115125,0.43312704166666666,-3.6693215416666662,-0.0023385296658855067,0.021840284873160486,0.0765650560874087,-0.024149956574087843,0.1771509739585469,0.09237674279494507,0.00023263440144979353,-0.0019244318312395248,0.0006016162383344965,0.003696567015085499,-0.011653361072559189,-0.013442223458716686
-0.0006981317007977319,0.02234021442552742,0.07539822368615504,9.062979041666667,0.45764366666666667,-3.6448049166666663,-0.0023385296658855067,0.021840284873160486,0.0765650560874087,-0.024149956574087843,0.1771509739585469,0.09237674279494507,0.00021727268850831648,0.0018567034849967213,0.0003687539903922416,-0.012770864834239375,0.041345088628921375,-0.0013797990102553618
-0.0013962634015954637,0.01884955592153876,0.0747000919853573,9.087495666666666,0.3759215833333333,-3.6448049166666663,-0.0023385296658855067,0.021840284873160486,0.0765650560874087,-0.024149956574087843,0.1771509739585469,0.09237674279494507,0.00020672738738508788,-0.00013434700709328168,-0.0012210524614660577,0.011987734210000215,-0.028078345752749038,-0.0014705225762397405
-0.0013962634015954637,0.01884955592153876,0.0767944870877505,9.062979041666667,0.43312704166666666,-3.6448049166666663,-0.0023385296658855067,0.021840284873160486,0.0765650560874087,-0.024149956574087843,0.1771509739585469,0.09237674279494507,-3.606665750143134e-05,6.775795057721896e-05,0.0012249445276175032,0.0036197668111761145,0.012808026126510537,-0.017674648348674007
-0.0013962634015954637,0.01884955592153876,0.0747000919853573,9.054806833333332,0.40861041666666664,-3.6121160833333334,-0.0023385296658855067,0.021840284873160486,0.0765650560874087,-0.024149956574087843,0.1771509739585469,0.09237674279494507,0.0012003800188231822,-0.0007490368659213198,-0.0005945828972236205,-0.024906547294919097,0.0046109389597511555,0.010773819535947677
-0.0041887902047863905,0.02024581932313422,0.07609635538695278,9.103840083333333,0.4004382083333333,-3.6366327083333334,-0.0023385296658855067,0.021840284873160486,0.0765650560874087,-0.024149956574087843,0.1771509739585469,0.09237674279494507,0.0014343164632156019,0.0017821250632280889,0.0014467049160366893,0.019897391575645833,0.000429292755529844,0.0027197161877199555
-0.006981317007977318,0.016755160819145562,0.07330382858376185,9.062979041666667,0.4004382083333333,-3.6448049166666663,-0.0023385296658855067,0.021840284873160486,0.0765650560874087,-0.024149956574087843,0.1771509739585469,0.09237674279494507,-5.603282144760629e-05,-0.008451005441733016,0.002525344606361223,0.1486269875978584,-0.3212510558587469,-0.26935207231893404
-0.0041887902047863905,0.01884955592153876,0.07749261878854824,9.07115125,0.43312704166666666,-3.6529771249999996,-0.0023385296658855067,0.021840284873160486,0.0765650560874087,-0.024149956574087843,0.1771509739585469,0.09237674279494507,-0.00016901879065427805,-0.0021058399323938344,0.0006626444317448366,-0.029015609134003417,0.025068285155462625,0.006941487685262051
-0.0027925268031909274,0.023038346126325153,0.07609635538695278,9.128356708333332,0.3840937916666667,-3.6693215416666662,-0.0023385296658855067,0.021840284873160486,0.0765650560874087,-0.024149956574087843,0.1771509739585469,0.09237674279494507,-0.0009825449443602247,0.002738420120073976,-0.0016963383179763455,0.028285178283489847,0.0003670605676633027,-0.0014890822120890326
-0.0013962634015954637,0.01815142422074103,0.07958701389094143,9.07115125,0.3840937916666667,-3.6693215416666662,-0.0023385296658855067,0.021840284873160486,0.0765650560874087,-0.024149956574087843,0.1771509739585469,0.09237674279494507,-0.0007773185130864199,-0.0005672694977723059,0.00012172597231624189,0.023979937578819485,-0.003552967754073931,-0.013501743019711503
0.0,0.01884955592153876,0.07958701389094143,9.022118,0.392266,-3.6448049166666663,-0.0023385296658855067,0.021840284873160486,0.0765650560874087,-0.024149956574087843,0.1771509739585469,0.09237674279494507,-0.0013931916869394268,-0.00018044318906628535,0.00020553967260671422,-0.0289866039405636,-0.00790142058935524,-0.009692011284109
0.0027925268031909274,0.019547687622336492,0.07888888219014369,9.079323458333333,0.40861041666666664,-3.6284604999999996,-0.0023385296658855067,0.021840284873160486,0.0765650560874087,-0.024149956574087843,0.1771509739585469,0.09237674279494507,0.0018185908488234862,-0.00042792469314175384,0.00022180193183365395,0.011819489353149401,-0.003511579823583258,-0.005357134653024122
-0.0006981317007977319,0.02024581932313422,0.07888888219014369,9.054806833333332,0.416782625,-3.6202882916666663,-0.0023385296658855067,0.021840284873160486,0.0765650560874087,-0.024149956574087843,0.1771509739585469,0.09237674279494507,0.00034069850204251873,-0.0005262365614822021,5.696162086113734e-05,-0.016674919284365482,-0.00790700747411615,0.019188759628213543
-0.0013962634015954637,0.020943951023931952,0.07888888219014369,9.087495666666666,0.43312704166666666,-3.6611493333333334,-0.0023385296658855067,0.021840284873160486,0.0765650560874087,-0.024149956574087843,0.1771509739585469,0.09237674279494507,0.0012984735709220027,0.0017310374419062895,0.001291263730630595,0.0038065907558885617,0.01689768538973181,-0.009631199697416357
-0.003490658503988659,0.017453292519943295,0.07609635538695278,9.079323458333333,0.4004382083333333,-3.6448049166666663,-0.0023385296658855067,0.021840284873160486,0.0765650560874087,-0.024149956574087843,0.1771509739585469,0.09237674279494507,-0.0007958689253141827,-0.0028669609379200728,-0.0015827580898132173,-0.00046727981927463416,0.0005032626471295919,0.006877922421869483
-0.0020943951023931952,0.023038346126325153,0.07958701389094143,9.079323458333333,0.4004382083333333,-3.6611493333333334,-0.0023385296658855067,0.021840284873160486,0.0765650560874087,-0.024149956574087843,0.1771509739585469,0.09237674279494507,0.00025874972739695957,-0.0001572152190669601,-0.0014155046878063337,0.003735163437113746,-0.015953800506202983,-0.013664340199293738
-0.0027925268031909274,0.023736477827122883,0.08237954069413235,9.07115125,0.43312704166666666,-3.6366327083333334,-0.0023385296658855067,0.021840284873160486,0.0765650560874087,-0.024149956574087843,0.1771509739585469,0.09237674279494507,0.001333649711391233,-0.0052501365144126495,0.008982736739191935,0.18808665631430377,-0.3434659193391888,-0.31677754624780974
-0.0027925268031909274,0.01815142422074103,0.07539822368615504,9.046634625,0.42495483333333334,-3.6284604999999996,-0.0023385296658855067,0.021840284873160486,0.0765650560874087,-0.024149956574087843,0.1771509739585469,0.09237674279494507,-0.0017383822581607587,-0.00017676162421375512,-0.0018117627057453482,-0.029093777935335016,0.024942440335396786,0.023122259865969753
0.0006981317007977319,0.01815142422074103,0.07888888219014369,9.103840083333333,0.3759215833333333,-3.67749375,-0.0023385296658855067,0.021840284873160486,0.0765650560874087,-0.024149956574087843,0.1771509739585469,0.09237674279494507,0.00040713501235477225,0.00012694949124145258,0.0008096438429492236,0.0037540634480926083,-0.0036613101077353767,-0.013662507518869377
0.0,0.01815142422074103,0.0767944870877505,9.095667875,0.3840937916666667,-3.6529771249999996,-0.0023385296658855067,0.021840284873160486,0.0765650560874087,-0.024149956574087843,0.1771509739585469,0.09237674279494507,0.0005890268502362561,-0.0011023791958949946,0.00018572146077594593,0.019999031262666802,-0.023993637857597522,-0.005572850347290228
-0.0013962634015954637,0.02024581932313422,0.0767944870877505,9.054806833333332,0.43312704166666666,-3.6448049166666663,-0.0023385296658855067,0.021840284873160486,0.0765650560874087,-0.024149956574087843,0.1771509739585469,0.09237674279494507,-0.0005440728589828338,0.0022282666863255416,-6.389044128251818e-05,-0.008555615130216125,0.025076871935257816,-0.0053805185960609896
0.0,0.016057029118347832,0.0767944870877505,9.07115125,0.3840937916666667,-3.6366327083333334,-0.0023385296658855067,0.021840284873160486,0.0765650560874087,-0.024149956574087843,0.1771509739585469,0.09237674279494507,0.0002779999112417534,-0.0006307002369931378,0.00014682586720121888,-0.00039359969858930024,-0.02826924758083288,0.006784012984277272
-0.0006981317007977319,0.016755160819145562,0.0767944870877505,9.07115125,0.44129925,-3.6529771249999996,-0.0023385296658855067,0.021840284873160486,0.0765650560874087,-0.024149956574087843,0.1771509739585469,0.09237674279494507,0.000371701204888322,-0.0013439202960203026,0.0010433289751783793,-0.008683561003226254,0.020996422966983997,-0.005576901336315507
-0.0013962634015954637,0.019547687622336492,0.0747000919853573,9.087495666666666,0.4004382083333333,-3.6448049166666663,-0.0023385296658855067,0.021840284873160486,0.0765650560874087,-0.024149956574087843,0.1771509739585469,0.09237674279494507,0.0010618158435103174,8.421009318667465e-06,0.0017489605638280612,-0.012571932726405603,0.004705271987305985,-0.0012598184442312243
-0.003490658503988659,0.019547687622336492,0.07120943348136866,9.112012291666666,0.392266,-3.6448049166666663,-0.0023385296658855067,0.021840284873160486,0.0765650560874087,-0.024149956574087843,0.1771509739585469,0.09237674279494507,-0.001012185488810091,-0.00021388747060549027,-0.0017618761346121692,-0.01281306258968343,-0.02390929205970265,-0.0015022614095412334
-0.0013962634015954637,0.02024581932313422,0.0747000919853573,9.136528916666666,0.44129925,-3.6448049166666663,-0.0023385296658855067,0.021840284873160486,0.0765650560874087,-0.024149956574087843,0.1771509739585469,0.09237674279494507,0.0010713086797348949,0.00035690093668846177,-0.001168631082552038,0.048797308961485805,0.02089643338548264,0.00282506481892845
-0.003490658503988659,0.01884955592153876,0.07749261878854824,9.038462416666666,0.4004382083333333,-3.6529771249999996,-0.0023385296658855067,0.021840284873160486,0.0765650560874087,-0.024149956574087843,0.1771509739585469,0.09237674279494507,0.0027524513140383972,-0.009415019870461063,0.006044913456330727,0.1683389018490968,-0.3617318893020074,-0.35118457924750757
-0.004886921905584123,0.019547687622336492,0.0767944870877505,9.079323458333333,0.3759215833333333,-3.6202882916666663,-0.0023385296658855067,0.021840284873160486,0.0765650560874087,-0.024149956574087843,0.1771509739585469,0.09237674279494507,-0.0026321297774154475,-0.0018186509453799995,-0.001742189369976449,-0.012812877689034795,-0.01983083204391894,-0.0013146081820705308
0.0006981317007977319,0.023038346126325153,0.08028514559173915,9.103840083333333,0.416782625,-3.6202882916666663,-0.0023385296658855067,0.021840284873160486,0.0765650560874087,-0.024149956574087843,0.1771509739585469,0.09237674279494507,0.0012560661540956448,0.0011113359029300994,0.0005955327274915035,0.01191278238763632,-0.016050041799722164,-0.0014224577363370395
-0.0020943951023931952,0.020943951023931952,0.07958701389094143,9.079323458333333,0.4494714583333333,-3.6202882916666663,-0.0023385296658855067,0.021840284873160486,0.0765650560874087,-0.024149956574087843,0.1771509739585469,0.09237674279494507,-0.0007603933322849503,-0.0009625832926675152,-0.0005424800998356478,-0.00024302274914251098,0.033078667505494,0.011066780326712449
-0.0006981317007977319,0.02234021442552742,0.08028514559173915,9.079323458333333,0.3840937916666667,-3.6448049166666663,-0.0023385296658855067,0.021840284873160486,0.0765650560874087,-0.024149956574087843,0.1771509739585469,0.09237674279494507,-9.959180915074049e-05,0.0027365853043382574,0.0007586495665551256,-0.016886475049917624,0.012744503734516032,0.006855505951055061
0.0,0.016755160819145562,0.07888888219014369,9.112012291666666,0.35957716666666667,-3.6611493333333334,-0.0023385296658855067,0.021840284873160486,0.0765650560874087,-0.024149956574087843,0.1771509739585469,0.09237674279494507,0.0014152199106847846,-0.0010585026620348599,-0.0009551817013017962,0.028279255990751595,-0.020070661744902282,-0.021922073081951685
-0.003490658503988659,0.01884955592153876,0.08098327729253688,9.054806833333332,0.4004382083333333,-3.6202882916666663,-0.0023385296658855067,0.021840284873160486,0.0765650560874087,-0.024149956574087843,0.1771509739585469,0.09237674279494507,0.0005791564375867899,0.0009750971537554838,0.0014797475864366586,-0.012768108526329505,0.004453468582411812,0.0027568550364353303
-0.0041887902047863905,0.017453292519943295,0.07819075048934597,9.079323458333333,0.392266,-3.6284604999999996,-0.0023385296658855067,0.021840284873160486,0.0765650560874087,-0.024149956574087843,0.1771509739585469,0.09237674279494507,0.00040480573279727674,-0.002063621649631101,0.0013534348130996958,-0.004455164171937364,0.0005311037617319205,-0.0013992963294784742
-0.004886921905584123,0.020943951023931952,0.07539822368615504,9.087495666666666,0.392266,-3.6284604999999996,-0.0023385296658855067,0.021840284873160486,0.0765650560874087,-0.024149956574087843,0.1771509739585469,0.09237674279494507,-0.001716089784911031,0.002230379158698157,5.589847457527581e-05,-0.00042086465332307724,-0.023977731934678184,0.0025509503032909797
-0.0013962634015954637,0.016755160819145562,0.07539822368615504,9.087495666666666,0.44129925,-3.6366327083333334,-0.0023385296658855067,0.021840284873160486,0.0765650560874087,-0.024149956574087843,0.1771509739585469,0.09237674279494507,-0.0005691175717422257,-0.0016955352061625783,-4.2020188367310994e-05,0.024103272620300677,0.004663379732221799,-0.009500450292461458
-0.0006981317007977319,0.019547687622336492,0.07539822368615504,9.038462416666666,0.43312704166666666,-3.6202882916666663,-0.0023385296658855067,0.021840284873160486,0.0765650560874087,-0.024149956574087843,0.1771509739585469,0.09237674279494507,0.0029743245384693407,-0.008022956400996019,0.005663339405560656,0.2186613102055953,-0.38352862461617543,-0.3437421249378799
-0.0027925268031909274,0.016755160819145562,0.0767944870877505,9.030290208333332,0.392266,-3.6284604999999996,-0.0023385296658855067,0.021840284873160486,0.0765650560874087,-0.024149956574087843,0.1771509739585469,0.09237674279494507,0.0004916606261661965,-0.0007901571358840803,0.0006487988824783082,-0.037255838398538264,-0.03205921439669106,0.0026490765665655486
-0.003490658503988659,0.01884955592153876,0.07609635538695278,9.103840083333333,0.45764366666666667,-3.6366327083333334,-0.0023385296658855067,0.021840284873160486,0.0765650560874087,-0.024149956574087843,0.1771509739585469,0.09237674279494507,-0.0010865465681281212,0.0003194655043576803,-0.0016828737644015296,0.019950249227995435,0.016712928103629246,-0.017726134247732526
-0.0013962634015954637,0.01815142422074103,0.07888888219014369,9.062979041666667,0.42495483333333334,-3.6039438749999997,-0.0023385296658855067,0.021840284873160486,0.0765650560874087,-0.024149956574087843,0.1771509739585469,0.09237674279494507,-0.0001400665102526087,-0.0010413618059984958,0.0012865974320581115,-0.004398623367794665,0.03325465457278393,-0.0013364616350241877
-0.0006981317007977319,0.019547687622336492,0.0767944870877505,9.07115125,0.35957716666666667,-3.6039438749999997,-0.0023385296658855067,0.021840284873160486,0.0765650560874087,-0.024149956574087843,0.1771509739585469,0.09237674279494507,0.0009252850050060087,0.0014490253156172468,0.0009346597685958106,-0.004624414661392492,-0.028139354580155616,-0.0015058805250764272
-0.0027925268031909274,0.016755160819145562,0.0747000919853573,9.079323458333333,0.416782625,-3.6039438749999997,-0.0023385296658855067,0.021840284873160486,0.0765650560874087,-0.024149956574087843,0.1771509739585469,0.09237674279494507,-0.0008582390535856252,-0.0011420666135916356,-0.0009171171213866662,0.003731616161036776,-0.015966870657592686,0.0067567890657404305
-0.0013962634015954637,0.01884955592153876,0.0767944870877505,9.07115125,0.4494714583333333,-3.6202882916666663,-0.0023385296658855067,0.021840284873160486,0.0765650560874087,-0.024149956574087843,0.1771509739585469,0.09237674279494507,0.00020679248303636996,0.0004194468075584886,0.0009142096784882072,-0.029078144670142147,0.03730139607929741,0.006775715537853571
-0.0013962634015954637,0.01884955592153876,0.07539822368615504,9.128356708333332,0.3759215833333333,-3.6366327083333334,-0.0023385296658855067,0.021840284873160486,0.0765650560874087,-0.024149956574087843,0.1771509739585469,0.09237674279494507,0.0006515363749106381,0.0004600890114355917,-0.0011445592785658948,0.011946861732797992,-0.0076280589758181356,0.006926287885813236
-0.0027925268031909274,0.017453292519943295,0.07749261878854824,9.103840083333333,0.392266,-3.6529771249999996,-0.0023385296658855067,0.021840284873160486,0.0765650560874087,-0.024149956574087843,0.1771509739585469,0.09237674279494507,-0.0010759376394277027,-0.0020230122677990384,0.0006458889661204863,-0.00046497049679681125,-0.011815285944536666,-0.01781489168045484
-0.0006981317007977319,0.021642082724729686,0.0767944870877505,9.103840083333333,0.416782625,-3.6202882916666663,-0.0023385296658855067,0.021840284873160486,0.0765650560874087,-0.024149956574087843,0.1771509739585469,0.09237674279494507,0.0001862032314264731,-0.00040723047007629025,-0.0012339986964177453,0.020047209918936753,0.008625208695780599,0.002869355207665145
-0.0013962634015954637,0.02234021442552742,0.07888888219014369,9.062979041666667,0.4004382083333333,-3.6284604999999996,-0.0023385296658855067,0.021840284873160486,0.0765650560874087,-0.024149956574087843,0.1771509739585469,0.09237674279494507,0.0036837932519105075,-0.010138316974596964,0.005914652304842259,0.20242805175023246,-0.41247715543480407,-0.3535344961664765
-0.003490658503988659,0.02024581932313422,0.08028514559173915,9.087495666666666,0.392266,-3.6366327083333334,-0.0023385296658855067,0.021840284873160486,0.0765650560874087,-0.024149956574087843,0.1771509739585469,0.09237674279494507,-0.0008596468761657461,0.0029451142599506417,0.0008178273951975811,0.003624575342886476,-0.011905166262066292,0.002558975362193532
-0.0020943951023931952,0.014660765716752367,0.07819075048934597,9.079323458333333,0.416782625,-3.6448049166666663,-0.0023385296658855067,0.021840284873160486,0.0765650560874087,-0.024149956574087843,0.1771509739585469,0.09237674279494507,-0.000486719000268026,-0.0031139685909880284,0.0009127969271855687,-0.004369857135465307,-0.0035693522618783385,0.006895861994306037
-0.0013962634015954637,0.02024581932313422,0.0767944870877505,9.087495666666666,0.42495483333333334,-3.6611493333333334,-0.0023385296658855067,0.021840284873160486,0.0765650560874087,-0.024149956574087843,0.1771509739585469,0.09237674279494507,-0.0001400512839209682,-0.0006077284903874634,-0.0009301287784828608,-0.012632509146545384,0.025039542528074606,0.0026402665783552327
-0.0006981317007977319,0.021642082724729686,0.07888888219014369,9.112012291666666,0.3759215833333333,-3.6693215416666662,-0.0023385296658855067,0.021840284873160486,0.0765650560874087,-0.024149956574087843,0.1771509739585469,0.09237674279494507,0.00019544597785887957,-0.0007569555935092349,-0.002057231531826818,0.0036529268535377716,-0.0365057642788504,-0.013425194116876768
-0.0013962634015954637,0.023038346126325153,0.08307767239493008,9.103840083333333,0.4494714583333333,-3.6448049166666663,-0.0023385296658855067,0.021840284873160486,0.0765650560874087,-0.024149956574087843,0.1771509739585469,0.09237674279494507,-0.0014965863515355234,0.000700596475319276,0.001464342321294906,0.019995173362590636,-0.011848711388810326,-0.017731461004264256
0.0013962634015954637,0.021642082724729686,0.08028514559173915,9.062979041666667,0.4739880833333333,-3.6121160833333334,-0.0023385296658855067,0.021840284873160486,0.0765650560874087,-0.024149956574087843,0.1771509739585469,0.09237674279494507,0.0011053648662846254,0.0014031207355538423,0.0020431879073883074,-0.024794696087565085,0.03715850279831749,0.02726495238623757
-0.0006981317007977319,0.01884955592153876,0.07609635538695278,9.112012291666666,0.4004382083333333,-3.6693215416666662,-0.0023385296658855067,0.021840284873160486,0.0765650560874087,-0.024149956574087843,0.1771509739585469,0.09237674279494507,0.0022346395902981837,0.0009935373860369247,-0.0002922515543500795,-0.0044949094264392885,-0.019954626143623467,-0.009615934169937232
-0.004886921905584123,0.016755160819145562,0.0767944870877505,9.1201845,0.44129925,-3.6529771249999996,-0.0023385296658855067,0.021840284873160486,0.0765650560874087,-0.024149956574087843,0.1771509739585469,0.09237674279494507,-0.0005838691410865331,-0.0009717349479727271,-0.00014309189737348352,0.02003215120798085,0.012932250589135122,-0.0014532967790671534
-0.003490658503988659,0.01815142422074103,0.0767944870877505,9.079323458333333,0.416782625,-3.6529771249999996,-0.0023385296658855067,0.021840284873160486,0.0765650560874087,-0.024149956574087843,0.1771509739585469,0.09237674279494507,-0.0025654792791076344,-0.00046777184714062606,-0.00098897749321781,-0.004632275779985073,0.00031295406958307395,0.006814310780702461
0.0013962634015954637,0.019547687622336492,0.07888888219014369,9.087495666666666,0.416782625,-3.6693215416666662,-0.0023385296658855067,0.021840284873160486,0.0765650560874087,-0.024149956574087843,0.1771509739585469,0.09237674279494507,0.005379978467025146,-0.011142161567975256,0.009151878993101948,0.20821913266231587,-0.41015725969544486,-0.3521303869920314
-0.0041887902047863905,0.01884955592153876,0.0767944870877505,9.128356708333332,0.3840937916666667,-3.6856659583333333,-0.0023385296658855067,0.021840284873160486,0.0765650560874087,-0.024149956574087843,0.1771509739585469,0.09237674279494507,-0.00035073706562773876,-0.00035641035253560513,0.0004175075096190917,0.05275246794485595,-0.04848684106319187,-0.029855719223683106
-0.003490658503988659,0.019547687622336492,0.07539822368615504,9.022118,0.48216029166666663,-3.6284604999999996,-0.0023385296658855067,0.021840284873160486,0.0765650560874087,-0.024149956574087843,0.1771509739585469,0.09237674279494507,-0.0005782863729998762,0.00025305322031124607,-0.0010922600390857128,-0.000359432131677277,0.04554074526920562,0.0026030489580507214
-0.0020943951023931952,0.01884955592153876,0.07819075048934597,9.022118,0.392266,-3.6366327083333334,-0.0023385296658855067,0.021840284873160486,0.0765650560874087,-0.024149956574087843,0.1771509739585469,0.09237674279494507,0.0026127770220591455,-0.0017132177154211684,0.00038691959969016385,-0.029107851540290386,-0.02404540558432221,0.014989145306260884
-0.00767944870877505,0.02234021442552742,0.0767944870877505,9.079323458333333,0.44129925,-3.6693215416666662,-0.0023385296658855067,0.021840284873160486,0.0765650560874087,-0.024149956574087843,0.1771509739585469,0.09237674279494507,-0.0015385631351328183,0.0027622128125627554,0.0005151714489517204,0.01185294429473339,0.0004964178310116884,-0.03394980984096153
-0.0041887902047863905,0.016755160819145562,0.07609635538695278,9.054806833333332,0.44129925,-3.6039438749999997,-0.0023385296658855067,0.021840284873160486,0.0765650560874087,-0.024149956574087843,0.1771509739585469,0.09237674279494507,-0.00224522213514089,-0.0025986356951997846,-0.0025200299080475035,-0.0003158431868993935,0.020821503825264966,0.014969868561676057
0.0,0.021642082724729686,0.08098327729253688,9.054806833333332,0.4004382083333333,-3.6366327083333334,-0.0023385296658855067,0.021840284873160486,0.0765650560874087,-0.024149956574087843,0.1771509739585469,0.09237674279494507,0.0013492850744393754,0.00051849339034263,0.002353420783171422,-0.025061647303494108,0.02080972282937516,0.01897521526695404
-0.0027925268031909274,0.02024581932313422,0.0767944870877505,9.103840083333333,0.35957716666666667,-3.67749375,-0.0023385296658855067,0.021840284873160486,0.0765650560874087,-0.024149956574087843,0.1771509739585469,0.09237674279494507,-0.0015114744477702567,0.0014862445354755515,-0.0022257955680517944,-0.0002906671452784023,-0.007769743577225868,-0.025936355775124646
0.0,0.017453292519943295,0.08098327729253688,9.103840083333333,0.3759215833333333,-3.6284604999999996,-0.0023385296658855067,0.021840284873160486,0.0765650560874087,-0.024149956574087843,0.1771509739585469,0.09237674279494507,0.0001784660333821859,-0.001204383190018953,0.0007424225293209647,0.007747855251811028,-0.01996446578593654,-0.005436232606458221
0.0,0.02024581932313422,0.07958701389094143,9.087495666666666,0.416782625,-3.6202882916666663,-0.0023385296658855067,0.021840284873160486,0.0765650560874087,-0.024149956574087843,0.1771509739585469,0.09237674279494507,0.0015919740108564404,0.0005811114904533442,0.0007278346402144017,-0.004490304131864305,0.012738447884325736,0.006917704275001793
-0.003490658503988659,0.01884955592153876,0.07819075048934597,9.095667875,0.392266,-3.6366327083333334,-0.0023385296658855067,0.021840284873160486,0.0765650560874087,-0.024149956574087843,0.1771509739585469,0.09237674279494507,-8.083671465923303e-05,-0.011618138195728303,0.008582779683517661,0.2291347501934431,-0.44093971991438524,-0.368151355928255
0.0006981317007977319,0.017453292519943295,0.07749261878854824,9.1201845,0.40861041666666664,-3.6448049166666663,-0.0023385296658855067,0.021840284873160486,0.0765650560874087,-0.024149956574087843,0.1771509739585469,0.09237674279494507,0.0015299794665678806,-0.0003416888618073545,0.0006548187799255427,0.03234641988157837,-0.011697385827974026,-0.009667252331495698
-0.0027925268031909274,0.01815142422074103,0.07609635538695278,9.054806833333332,0.43312704166666666,-3.6284604999999996,-0.0023385296658855067,0.021840284873160486,0.0765650560874087,-0.024149956574087843,0.1771509739585469,0.09237674279494507,-0.0003929466355811305,-0.00048075278363673036,-0.0002444495913872946,-0.016848469107674832,0.02491750834675477,0.0027456374224381548
-0.0013962634015954637,0.01884955592153876,0.0767944870877505,9.087495666666666,0.3840937916666667,-3.6366327083333334,-0.0023385296658855067,0.021840284873160486,0.0765650560874087,-0.024149956574087843,0.1771509739585469,0.09237674279494507,0.0012938564790137093,-0.0010189883972639908,0.0005944780168088896,-0.01665451475861733,-0.01997227727347799,-0.009590991570604042
-0.0041887902047863905,0.020943951023931952,0.07539822368615504,9.1201845,0.42495483333333334,-3.6202882916666663,-0.0023385296658855067,0.021840284873160486,0.0765650560874087,-0.024149956574087843,0.1771509739585469,0.09237674279494507,0.0006226291959428692,0.0007918877706193605,-0.0003729675417965879,0.04454935964799935,-0.0034124438944940797,-0.0014107515115132333
-0.005585053606381855,0.01884955592153876,0.07609635538695278,9.030290208333332,0.43312704166666666,-3.6202882916666663,-0.0023385296658855067,0.021840284873160486,0.0765650560874087,-0.024149956574087843,0.1771509739585469,0.09237674279494507,-0.0032263088841168576,-0.00099864007755521,-0.0003259925285031356,-0.02492471189769022,0.02906435979967084,0.015001863322038187
0.0006981317007977319,0.020943951023931952,0.07749261878854824,9.079323458333333,0.3759215833333333,-3.6529771249999996,-0.0023385296658855067,0.021840284873160486,0.0765650560874087,-0.024149956574087843,0.1771509739585469,0.09237674279494507,0.0009560657759907612,0.0006031847538301102,0.0005803131424010226,-0.004570197398913729,-0.007780977964488483,0.0067551509154750835
-0.0013962634015954637,0.019547687622336492,0.07609635538695278,9.087495666666666,0.392266,-3.6693215416666662,-0.0023385296658855067,0.021840284873160486,0.0765650560874087,-0.024149956574087843,0.1771509739585469,0.09237674279494507,0.0009580699789611232,0.00015096655704735772,0.0011531123429454572,0.011967909239372554,-0.02403475460466605,-0.02169768478352072
-0.0027925268031909274,0.019547687622336492,0.07400196028455958,9.062979041666667,0.44129925,-3.6284604999999996,-0.0023385296658855067,0.021840284873160486,0.0765650560874087,-0.024149956574087843,0.1771509739585469,0.09237674279494507,0.0001561508158490143,0.0002602567547168809,-0.001049944925107914,-0.0047031108895719724,0.01275269266571131,0.006765525685736306
-0.0027925268031909274,0.01884955592153876,0.07609635538695278,9.07115125,0.416782625,-3.6448049166666663,-0.0023385296658855067,0.021840284873160486,0.0765650560874087,-0.024149956574087843,0.1771509739585469,0.09237674279494507,-0.0006515742844283634,-0.00036358714641601274,-0.001392401892757779,-0.020687007455483773,0.037426894828853294,0.002628529788117215
-0.0020943951023931952,0.019547687622336492,0.07888888219014369,9.112012291666666,0.34323275000000003,-3.6529771249999996,-0.0023385296658855067,0.021840284873160486,0.0765650560874087,-0.024149956574087843,0.1771509739585469,0.09237674279494507,0.0019536777749196463,-0.01360880145415668,0.01098092060593507,0.2583712708922065,-0.4433584300601738,-0.37224751707503934
-0.0006981317007977319,0.019547687622336492,0.07539822368615504,9.095667875,0.3759215833333333,-3.6448049166666663,-0.0023385296658855067,0.021840284873160486,0.0765650560874087,-0.024149956574087843,0.1771509739585469,0.09237674279494507,0.0010184436470243557,0.0011785831158205831,-0.0013668749196612147,0.023977798707423406,-0.01583528279171736,-0.04642797082507041
-0.0027925268031909274,0.016755160819145562,0.07749261878854824,9.046634625,0.40861041666666664,-3.5549106249999998,-0.0023385296658855067,0.021840284873160486,0.0765650560874087,-0.024149956574087843,0.1771509739585469,0.09237674279494507,0.0004963476008883277,-0.0017952502610101297,-0.00017323933357437082,-0.037186134941221,0.008495803631081045,0.0353372473138146
-0.003490658503988659,0.02024581932313422,0.07819075048934597,9.1201845,0.392266,-3.6284604999999996,-0.0023385296658855067,0.021840284873160486,0.0765650560874087,-0.024149956574087843,0.1771509739585469,0.09237674279494507,-0.0005737190918123463,-0.0006076493557060292,0.0001395116734593238,0.0036385813529915636,-0.011813749706985836,0.02331817625588903
-0.0027925268031909274,0.021642082724729686,0.07819075048934597,9.112012291666666,0.416782625,-3.67749375,-0.0023385296658855067,0.021840284873160486,0.0765650560874087,-0.024149956574087843,0.1771509739585469,0.09237674279494507,0.0003422466985941172,0.0018143388203393214,0.001328214343111257,0.036470082482732744,0.012924739516724819,-0.01783096288072939
-0.003490658503988659,0.01815142422074103,0.07539822368615504,9.038462416666666,0.392266,-3.6448049166666663,-0.0023385296658855067,0.021840284873160486,0.0765650560874087,-0.024149956574087843,0.1771509739585469,0.09237674279494507,-0.0009094943317402808,-0.0022300288913690448,-0.0013961432171122432,-0.037148542108648916,0.012590707962042157,0.006919359380951143
-0.0013962634015954637,0.02234021442552742,0.07819075048934597,9.112012291666666,0.367749375,-3.6611493333333334,-0.0023385296658855067,0.021840284873160486,0.0765650560874087,-0.024149956574087843,0.1771509739585469,0.09237674279494507,-0.00016053880532542635,0.0017090461615888778,0.00048660707993654356,0.0076727012650992564,-0.024064888947703388,-0.01774170272713334
-0.0013962634015954637,0.01884955592153876,0.07749261878854824,9.095667875,0.416782625,-3.6284604999999996,-0.0023385296658855067,0.021840284873160486,0.0765650560874087,-0.024149956574087843,0.1771509739585469,0.09237674279494507,0.0006764518235113548,0.0008932835575801295,-0.00046815156914586595,0.007834283494047363,0.004578031423638753,-0.017657666406813148
-0.0027925268031909274,0.017453292519943295,0.07819075048934597,9.079323458333333,0.40861041666666664,-3.5957716666666664,-0.0023385296658855067,0.021840284873160486,0.0765650560874087,-0.024149956574087843,0.1771509739585469,0.09237674279494507,-0.00029551132299293436,-0.0013468785125833821,-0.0004938008899303302,-0.012750588019461941,0.024888517384778788,0.006722729813937058
-0.0020943951023931952,0.02024581932313422,0.07958701389094143,9.103840083333333,0.35957716666666667,-3.6121160833333334,-0.0023385296658855067,0.021840284873160486,0.0765650560874087,-0.024149956574087843,0.1771509739585469,0.09237674279494507,0.0006408976747688117,0.001695217914094745,0.0020301226855638705,-0.00022106656681632073,-0.032057703484895866,0.01499706361274712
-0.0027925268031909274,0.016057029118347832,0.07539822368615504,9.103840083333333,0.42495483333333334,-3.6448049166666663,-0.0023385296658855067,0.021840284873160486,0.0765650560874087,-0.024149956574087843,0.1771509739585469,0.09237674279494507,0.002156703939773606,-0.014122491098429096,0.009266232215803472,0.2863874722946099,-0.4243921690717441,-0.375834489575704
-0.0020943951023931952,0.016755160819145562,0.07609635538695278,9.046634625,0.40861041666666664,-3.6284604999999996,-0.0023385296658855067,0.021840284873160486,0.0765650560874087,-0.024149956574087843,0.1771509739585469,0.09237674279494507,0.00041843813361296334,-0.0012622439113087127,-0.0010884699751469464,-0.008512412430482624,-0.015702137287263596,-0.013607369130591938
-0.0027925268031909274,0.019547687622336492,0.07819075048934597,9.062979041666667,0.44129925,-3.6039438749999997,-0.0023385296658855067,0.021840284873160486,0.0765650560874087,-0.024149956574087843,0.1771509739585469,0.09237674279494507,-0.0006515418975628309,-0.001326202910355315,0.0005797060968430157,-0.016839401725512973,0.012538895427869451,0.023202704036803433
-0.0013962634015954637,0.021642082724729686,0.0767944870877505,9.095667875,0.416782625,-3.6529771249999996,-0.0023385296658855067,0.021840284873160486,0.0765650560874087,-0.024149956574087843,0.1771509739585469,0.09237674279494507,0.00030442511800590126,0.0019365993615692706,-0.0015110063203255255,-0.0004821067428551012,-0.024015644553500706,0.0026790417758628363
-0.0020943951023931952,0.017453292519943295,0.08028514559173915,9.095667875,0.465815875,-3.6611493333333334,-0.0023385296658855067,0.021840284873160486,0.0765650560874087,-0.024149956574087843,0.1771509739585469,0.09237674279494507,-0.0004416340785133935,0.0009968690898636392,0.0016503597915657707,0.01611894748971086,0.02079957949590388,-0.009602194338040064
-0.0013962634015954637,0.016057029118347832,0.0767944870877505,9.062979041666667,0.42495483333333334,-3.6448049166666663,-0.0023385296658855067,0.021840284873160486,0.0765650560874087,-0.024149956574087843,0.1771509739585469,0.09237674279494507,0.0005630015722499263,-0.001406820707383383,-0.00024063622195628147,-0.016973807940561005,0.016933027280264155,0.014843412904025691
-0.0027925268031909274,0.01884955592153876,0.07749261878854824,9.095667875,0.392266,-3.67749375,-0.0023385296658855067,0.021840284873160486,0.0765650560874087,-0.024149956574087843,0.1771509739585469,0.09237674279494507,0.00025358081877969204,-5.253294013636454e-05,0.0001376267911529172,0.016022407415579483,-0.03216239818883185,-0.025732365687060683
-0.0027925268031909274,0.01884955592153876,0.07749261878854824,9.062979041666667,0.45764366666666667,-3.6284604999999996,-0.0023385296658855067,0.021840284873160486,0.0765650560874087,-0.024149956574087843,0.1771509739585469,0.09237674279494507,-0.0005223030637089564,-7.309502555260917e-05,0.0005778787172198741,0.007734914521899979,0.016678731757713637,-0.0055320357785278666
-0.0013962634015954637,0.01884955592153876,0.07609635538695278,9.046634625,0.42495483333333334,-3.6202882916666663,-0.0023385296658855067,0.021840284873160486,0.0765650560874087,-0.024149956574087843,0.1771509739585469,0.09237674279494507,0.0014028304323900898,-0.0010597737717228544,0.0004499411700576145,-0.03299872480987466,0.012751046592187487,0.027102170546400118
-0.004886921905584123,0.020943951023931952,0.07539822368615504,9.112012291666666,0.4004382083333333,-3.67749375,-0.0023385296658855067,0.021840284873160486,0.0765650560874087,-0.024149956574087843,0.1771509739585469,0.09237674279494507,-0.0008266707658680069,0.0028654570521334244,-0.0012286432771425942,-0.004610507229265387,0.012818698701739932,-0.0013573887731230362
-0.0027925268031909274,0.014660765716752367,0.07819075048934597,9.1201845,0.3759215833333333,-3.67749375,-0.0023385296658855067,0.021840284873160486,0.0765650560874087,-0.024149956574087843,0.1771509739585469,0.09237674279494507,0.0025175731130060042,-0.016664250150437664,0.009301510602020101,0.26911814505910503,-0.46156726729477815,-0.3723477051769137
-0.0020943951023931952,0.01884955592153876,0.07819075048934597,9.087495666666666,0.44129925,-3.6529771249999996,-0.0023385296658855067,0.021840284873160486,0.0765650560874087,-0.024149956574087843,0.1771509739585469,0.09237674279494507,0.0006203907569220001,-3.2278464857660284e-05,0.0006135000104556429,-0.00047673327968205645,0.029109079512427097,-0.017573865034776273
-0.003490658503988659,0.01884955592153876,0.07749261878854824,9.087495666666666,0.3840937916666667,-3.6202882916666663,-0.0023385296658855067,0.021840284873160486,0.0765650560874087,-0.024149956574087843,0.1771509739585469,0.09237674279494507,-0.0014588299008949784,0.0002307767001412006,-0.0005088585110679329,-0.020810198085390075,0.004507526216528006,0.01905175434189459
0.0,0.01815142422074103,0.07819075048934597,9.128356708333332,0.3759215833333333,-3.6611493333333334,-0.0023385296658855067,0.021840284873160486,0.0765650560874087,-0.024149956574087843,0.1771509739585469,0.09237674279494507,-5.2998872568384365e-05,-0.0007305602111945896,0.0011582958083465823,0.028269206092977152,-0.02007056735681691,-0.005496591482552522
-0.0006981317007977319,0.019547687622336492,0.07609635538695278,9.07115125,0.416782625,-3.6529771249999996,-0.0023385296658855067,0.021840284873160486,0.0765650560874087,-0.024149956574087843,0.1771509739585469,0.09237674279494507,0.000537478999126587,-0.00108349959104588,-0.0016076876428300715,0.015954630020911666,0.004547302093213297,-0.017729041209506424
-0.0013962634015954637,0.021642082724729686,0.07958701389094143,9.038462416666666,0.40861041666666664,-3.6202882916666663,-0.0023385296658855067,0.021840284873160486,0.0765650560874087,-0.024149956574087843,0.1771509739585469,0.09237674279494507,0.0009669982433492923,0.00023504178789531454,0.0016038618669065835,-0.057617733713986874,0.00048167040496617037,0.023091533793250685
-0.003490658503988659,0.020943951023931952,0.07609635538695278,9.152873333333332,0.40861041666666664,-3.6693215416666662,-0.0023385296658855067,0.021840284873160486,0.0765650560874087,-0.024149956574087843,0.1771509739585469,0.09237674279494507,-0.0009254764846663402,-0.0007739752598801482,-0.0022384055414950204,0.04039575037000535,-0.003602515878179729,-0.013469031806604763
-0.0013962634015954637,0.02234021442552742,0.08098327729253688,9.07115125,0.416782625,-3.6448049166666663,-0.0023385296658855067,0.021840284873160486,0.0765650560874087,-0.024149956574087843,0.1771509739585469,0.09237674279494507,0.0014115247583812785,0.001527556180792449,0.0023783754950874566,-0.0002606483632245383,0.008498629086401258,-0.0013342129309670712
-0.0041887902047863905,0.019547687622336492,0.07609635538695278,9.07115125,0.4004382083333333,-3.6448049166666663,-0.0023385296658855067,0.021840284873160486,0.0765650560874087,-0.024149956574087843,0.1771509739585469,0.09237674279494507,-0.002932739367784197,-0.0007522553625240218,-0.0015872131793224754,-0.004559711638662322,-0.024112946294640572,0.015009679355257224
0.0013962634015954637,0.020943951023931952,0.07888888219014369,9.079323458333333,0.4494714583333333,-3.67749375,-0.0023385296658855067,0.021840284873160486,0.0765650560874087,-0.024149956574087843,0.1771509739585469,0.09237674279494507,0.002187277368394312,0.0002719909507477207,0.0018474250503561804,0.01586292544596329,0.01693332492537339,-0.025848936847969513
-0.0027925268031909274,0.02024581932313422,0.07539822368615504,9.046634625,0.416782625,-3.6284604999999996,-0.0023385296658855067,0.021840284873160486,0.0765650560874087,-0.024149956574087843,0.1771509739585469,0.09237674279494507,0.0036276167607327253,-0.017306958010314635,0.007854947146717386,0.2982863314965274,-0.41680432410654716,-0.4076088830448438
-0.003490658503988659,0.023736477827122883,0.08028514559173915,8.997601374999999,0.416782625,-3.5549106249999998,-0.0023385296658855067,0.021840284873160486,0.0765650560874087,-0.024149956574087843,0.1771509739585469,0.09237674279494507,7.298776800573813e-05,0.0009516286488116822,0.0010978118166591394,-0.04133316259062914,0.0004892698049592909,0.04778460856249781
-0.003490658503988659,0.021642082724729686,0.07819075048934597,9.079323458333333,0.416782625,-3.6529771249999996,-0.0023385296658855067,0.021840284873160486,0.0765650560874087,-0.024149956574087843,0.1771509739585469,0.09237674279494507,-0.001215992970479329,0.0017142449310440578,-0.0002439396455642275,-0.028975744174923896,0.0044284295631062355,-0.005436265840325674
-0.0013962634015954637,0.01815142422074103,0.07819075048934597,9.136528916666666,0.40861041666666664,-3.6448049166666663,-0.0023385296658855067,0.021840284873160486,0.0765650560874087,-0.024149956574087843,0.1771509739585469,0.09237674279494507,0.001293773843813404,-5.631839812892015e-05,0.0021130998979095005,0.036344860014084455,-0.01574244044938411,-0.02596362698692565
-0.0041887902047863905,0.01815142422074103,0.07400196028455958,9.062979041666667,0.44129925,-3.5957716666666664,-0.0023385296658855067,0.021840284873160486,0.0765650560874087,-0.024149956574087843,0.1771509739585469,0.09237674279494507,-0.0007795586741360185,0.0007943849639533765,-0.00013154965910591303,-0.00443186813308871,0.037201681660600325,0.014857867962984987
-0.0020943951023931952,0.016057029118347832,0.0747000919853573,9.07115125,0.367749375,-3.6284604999999996,-0.0023385296658855067,0.021840284873160486,0.0765650560874087,-0.024149956574087843,0.1771509739585469,0.09237674279494507,0.001323735850461866,-0.0005419143151152648,-0.002269290171413852,-0.020932446723717097,-0.019836711329997106,0.010864233535196999
-0.004886921905584123,0.017453292519943295,0.07958701389094143,9.112012291666666,0.40861041666666664,-3.6529771249999996,-0.0023385296658855067,0.021840284873160486,0.0765650560874087,-0.024149956574087843,0.1771509739585469,0.09237674279494507,8.725168580611007e-05,-0.0006638873020965285,0.00017624507884174677,0.04053443049262646,-0.0036443112233567627,-0.025882386618022887
-0.004886921905584123,0.01884955592153876,0.07888888219014369,9.030290208333332,0.416782625,-3.6039438749999997,-0.0023385296658855067,0.021840284873160486,0.0765650560874087,-0.024149956574087843,0.1771509739585469,0.09237674279494507,-0.0018364888404891616,4.948607978119076e-05,9.543455831588526e-05,-0.012680829560627766,-0.011856750362027053,-0.0014246575017802425
-0.0013962634015954637,0.01884955592153876,0.07888888219014369,9.054806833333332,0.44129925,-3.6039438749999997,-0.0023385296658855067,0.021840284873160486,0.0765650560874087,-0.024149956574087843,0.1771509739585469,0.09237674279494507,-0.0012270939113835434,0.0016487414532090669,0.0016476825805791194,-0.02504742153295697,0.0249524636848043,0.039407127439342673
0.0006981317007977319,0.0153588974175501,0.07539822368615504,9.103840083333333,0.392266,-3.6856659583333333,-0.0023385296658855067,0.021840284873160486,0.0765650560874087,-0.024149956574087843,0.1771509739585469,0.09237674279494507,0.0024309959634404143,-0.0016743554349488202,0.0001742211776947112,0.003568637182161998,-0.028105168221171567,-0.01375340690880388
-0.003490658503988659,0.01884955592153876,0.07539822368615504,9.095667875,0.4494714583333333,-3.6611493333333334,-0.0023385296658855067,0.021840284873160486,0.0765650560874087,-0.024149956574087843,0.1771509739585469,0.09237674279494507,0.003297619487030164,-0.015948903032001836,0.009719091391985539,0.2619825336471243,-0.3983764643978552,-0.3331555019609256
-0.003490658503988659,0.02024581932313422,0.07749261878854824,9.079323458333333,0.42495483333333334,-3.6693215416666662,-0.0023385296658855067,0.021840284873160486,0.0765650560874087,-0.024149956574087843,0.1771509739585469,0.09237674279494507,0.0005493822242218495,-0.0003781547512831746,0.0006822181632392191,-0.016886318647992265,0.03723937700479214,-0.013604737700486558
-0.004886921905584123,0.020943951023931952,0.07609635538695278,9.112012291666666,0.35140495833333335,-3.6448049166666663,-0.0023385296658855067,0.021840284873160486,0.0765650560874087,-0.024149956574087843,0.1771509739585469,0.09237674279494507,-3.488334174635344e-05,0.0036688090515481888,0.0005289405302925603,0.011974399604561242,-0.019894854109504655,-0.0015205826530235724
-0.004886921905584123,0.013962634015954637,0.07539822368615504,9.087495666666666,0.392266,-3.6448049166666663,-0.0023385296658855067,0.021840284873160486,0.0765650560874087,-0.024149956574087843,0.1771509739585469,0.09237674279494507,-0.0018005041847634585,-0.0015089863391323359,-0.0017118959437662034,0.01172612372169658,-0.011882761694610132,0.0068347620484400795
-0.0006981317007977319,0.016755160819145562,0.07888888219014369,9.062979041666667,0.416782625,-3.6611493333333334,-0.0023385296658855067,0.021840284873160486,0.0765650560874087,-0.024149956574087843,0.1771509739585469,0.09237674279494507,0.00022646784595524506,-0.0024172548704097093,0.0010647171351470417,-0.00039229422094379707,0.008793471353851348,0.002603185947590712
-0.0013962634015954637,0.021642082724729686,0.0767944870877505,9.062979041666667,0.4004382083333333,-3.6693215416666662,-0.0023385296658855067,0.021840284873160486,0.0765650560874087,-0.024149956574087843,0.1771509739585469,0.09237674279494507,0.0001706929453434061,-0.000670250136593154,-0.0008095474006072182,-0.028915258402892406,-0.0037786789408235204,0.00689742353634285
-0.0013962634015954637,0.023038346126325153,0.07819075048934597,9.1201845,0.40861041666666664,-3.6856659583333333,-0.0023385296658855067,0.021840284873160486,0.0765650560874087,-0.024149956574087843,0.1771509739585469,0.09237674279494507,-0.0012634817175415033,0.0019554821431279515,-0.0007743670204290898,0.04036368421302397,-0.04032012014888315,-0.00540161473338904
0.0006981317007977319,0.01884955592153876,0.08028514559173915,9.038462416666666,0.4903325,-3.67749375,-0.0023385296658855067,0.021840284873160486,0.0765650560874087,-0.024149956574087843,0.1771509739585469,0.09237674279494507,0.0007421817138287443,-0.00020052493221728808,0.0009092443313996445,-0.0044541040707484535,0.0452681307781947,-0.017719986683527953
-0.0006981317007977319,0.019547687622336492,0.07819075048934597,9.046634625,0.4004382083333333,-3.6448049166666663,-0.0023385296658855067,0.021840284873160486,0.0765650560874087,-0.024149956574087843,0.1771509739585469,0.09237674279494507,0.0015559730916541589,-0.0007113315410806927,-0.0002644150783385591,-0.012682487953808348,0.012728653103742426,-0.0014258822242386832
-0.003490658503988659,0.020943951023931952,0.07888888219014369,9.07115125,0.3759215833333333,-3.6448049166666663,-0.0023385296658855067,0.021840284873160486,0.0765650560874087,-0.024149956574087843,0.1771509739585469,0.09237674279494507,0.0004446255183784481,0.0010163203578214162,0.00012709187366490823,0.028141090219994423,-0.007659953187981729,-0.02579365957059999
-0.004886921905584123,0.01815142422074103,0.07819075048934597,9.013945791666666,0.392266,-3.5957716666666664,-0.0023385296658855067,0.021840284873160486,0.0765650560874087,-0.024149956574087843,0.1771509739585469,0.09237674279494507,0.0031583781133738375,-0.014918267843361794,0.012969281760544184,0.24241429801920406,-0.3898559618237832,-0.3468503333730484
-0.0041887902047863905,0.016755160819145562,0.07539822368615504,9.062979041666667,0.3840937916666667,-3.6039438749999997,-0.0023385296658855067,0.021840284873160486,0.0765650560874087,-0.024149956574087843,0.1771509739585469,0.09237674279494507,-0.00214528664026964,-0.0017363420544908512,0.0002941400920936606,-0.016877801267808665,0.004477569034668403,-0.005603868734756884
0.0,0.02024581932313422,0.0747000919853573,9.095667875,0.3759215833333333,-3.5957716666666664,-0.0023385296658855067,0.021840284873160486,0.0765650560874087,-0.024149956574087843,0.1771509739585469,0.09237674279494507,0.00014001460229081324,0.001402631890035525,0.0002339493568841549,-0.0002479973722836903,-0.015729620445295606,0.023248929333007363
0.0,0.017453292519943295,0.0747000919853573,9.095667875,0.40861041666666664,-3.6448049166666663,-0.0023385296658855067,0.021840284873160486,0.0765650560874087,-0.024149956574087843,0.1771509739585469,0.09237674279494507,0.0004918431278543105,-0.0016326895535219799,0.0004357716880022364,0.019872287315703657,-0.011826338139700581,0.023056525217478183
-0.0006981317007977319,0.02024581932313422,0.07330382858376185,9.054806833333332,0.43312704166666666,-3.693838166666666,-0.0023385296658855067,0.021840284873160486,0.0765650560874087,-0.024149956574087843,0.1771509739585469,0.09237674279494507,0.0006624365038450946,0.00035673570608116175,-0.0023468183940050917,-0.02079498178299747,-0.0035024603992755417,-0.017682641253737877
-0.0020943951023931952,0.019547687622336492,0.07819075048934597,9.095667875,0.44129925,-3.6611493333333334,-0.0023385296658855067,0.021840284873160486,0.0765650560874087,-0.024149956574087843,0.1771509739585469,0.09237674279494507,-0.0005798924801848298,0.0020430097942484337,0.0018184009219445465,-0.008614386432379372,0.01262741812000121,-0.005490481158928133
-0.0006981317007977319,0.016057029118347832,0.0747000919853573,9.112012291666666,0.416782625,-3.6529771249999996,-0.0023385296658855067,0.021840284873160486,0.0765650560874087,-0.024149956574087843,0.1771509739585469,0.09237674279494507,-0.0009696148975448052,-0.002189731675183036,-0.0033984524811182335,0.00358931794069593,-0.01588092248543081,-0.01784528121611356
0.0006981317007977319,0.02024581932313422,0.08168140899333462,9.103840083333333,0.4494714583333333,-3.6202882916666663,-0.0023385296658855067,0.021840284873160486,0.0765650560874087,-0.024149956574087843,0.1771509739585469,0.09237674279494507,0.0009440454454382058,-0.0007759274326179752,0.0018315097166958021,-0.00022928114247306914,0.02093873077173521,-0.001214715564904183
-0.0006981317007977319,0.021642082724729686,0.07819075048934597,9.103840083333333,0.40861041666666664,-3.6202882916666663,-0.0023385296658855067,0.021840284873160486,0.0765650560874087,-0.024149956574087843,0.1771509739585469,0.09237674279494507,0.0012000197495455648,0.0004165425912126971,0.000890598687752432,-0.020829957199689483,-0.00782474959835621,0.027072615197883912
-0.003490658503988659,0.02024581932313422,0.07609635538695278,9.144701125,0.42495483333333334,-3.67749375,-0.0023385296658855067,0.021840284873160486,0.0765650560874087,-0.024149956574087843,0.1771509739585469,0.09237674279494507,-0.0012248278266430098,0.0017747667349597577,0.0006608871538929501,0.03214304973218064,0.000554058340151423,-0.021686489499142467
-0.0006981317007977319,0.016755160819145562,0.0747000919853573,9.079323458333333,0.42495483333333334,-3.6366327083333334,-0.0023385296658855067,0.021840284873160486,0.0765650560874087,-0.024149956574087843,0.1771509739585469,0.09237674279494507,0.0027538059961782803,-0.01938044197744205,0.008135147411426265,0.2564470923092219,-0.3857845825553743,-0.3260771082565884
0.0,0.021642082724729686,0.08098327729253688,9.095667875,0.40861041666666664,-3.6448049166666663,-0.0023385296658855067,0.021840284873160486,0.0765650560874087,-0.024149956574087843,0.1771509739585469,0.09237674279494507,0.0024603151921764304,6.691415211008762e-05,0.0006565013744597879,-0.004425493310461073,0.004434159540108529,0.0028038846367637927
-0.004886921905584123,0.021642082724729686,0.07958701389094143,9.103840083333333,0.4004382083333333,-3.6529771249999996,-0.0023385296658855067,0.021840284873160486,0.0765650560874087,-0.024149956574087843,0.1771509739585469,0.09237674279494507,-0.000992363089416632,-5.528920039473551e-05,0.0007028174813458412,0.007664961335120623,-0.028108734926944906,-0.005507661291082752
-0.0027925268031909274,0.021642082724729686,0.07888888219014369,9.087495666666666,0.45764366666666667,-3.6448049166666663,-0.0023385296658855067,0.021840284873160486,0.0765650560874087,-0.024149956574087843,0.1771509739585469,0.09237674279494507,-0.0005544035881191653,-0.0010605974252774141,-0.001188165182634738,0.007870864342549052,0.00444793151584232,0.0027436223582369738
-0.0020943951023931952,0.023038346126325153,0.08098327729253688,9.07115125,0.4494714583333333,-3.6529771249999996,-0.0023385296658855067,0.021840284873160486,0.0765650560874087,-0.024149956574087843,0.1771509739585469,0.09237674279494507,-0.0003213751769254397,0.0010709739851888272,0.0016298636361053369,-0.004573198283775813,0.020820435352992644,0.002794441154499259
-0.0013962634015954637,0.020943951023931952,0.07819075048934597,9.079323458333333,0.40861041666666664,-3.6611493333333334,-0.0023385296658855067,0.021840284873160486,0.0765650560874087,-0.024149956574087843,0.1771509739585469,0.09237674279494507,-0.00011996040255656088,0.002082280349787951,0.0006092796135256631,-0.016598494299254113,0.00043259931948255937,-0.00944445999077634
-0.0006981317007977319,0.016755160819145562,0.0767944870877505,9.112012291666666,0.40861041666666664,-3.6448049166666663,-0.0023385296658855067,0.021840284873160486,0.0765650560874087,-0.024149956574087843,0.1771509739585469,0.09237674279494507,-6.426854158509866e-05,-0.0006269871215333219,-0.0011296736461906857,0.011840215585724827,-0.011659584881371742,0.006720503984005515
-0.0006981317007977319,0.01815142422074103,0.07888888219014369,9.087495666666666,0.43312704166666666,-3.6611493333333334,-0.0023385296658855067,0.021840284873160486,0.0765650560874087,-0.024149956574087843,0.1771509739585469,0.09237674279494507,-0.0006177273972886889,0.0007690453063140854,0.001073803271617165,-0.020811876851148513,0.024808093873511,0.002567786878634375
0.0006981317007977319,0.016755160819145562,0.0767944870877505,9.128356708333332,0.3840937916666667,-3.6693215416666662,-0.0023385296658855067,0.021840284873160486,0.0765650560874087,-0.024149956574087843,0.1771509739585469,0.09237674279494507,0.0013032504718171578,-0.0006086290406672104,0.0017677418962914007,0.023937472025297626,-0.0034552974373001023,-0.013613065224500537
-0.0020943951023931952,0.01815142422074103,0.07400196028455958,9.079323458333333,0.392266,-3.6448049166666663,-0.0023385296658855067,0.021840284873160486,0.0765650560874087,-0.024149956574087843,0.1771509739585469,0.09237674279494507,-3.465551849844344e-05,0.0004428993249372251,0.0003973502368531089,0.003696953566540982,-0.015813178611336107,-0.009561768336611097
-0.0020943951023931952,0.016755160819145562,0.07330382858376185,9.07115125,0.42495483333333334,-3.6284604999999996,-0.0023385296658855067,0.021840284873160486,0.0765650560874087,-0.024149956574087843,0.1771509739585469,0.09237674279494507,0.004242492561588857,-0.018841879821257918,0.011124016876987159,0.24480388245933993,-0.3786035307118115,-0.32798114016915453
-0.0020943951023931952,0.02024581932313422,0.0767944870877505,9.1201845,0.416782625,-3.6284604999999996,-0.0023385296658855067,0.021840284873160486,0.0765650560874087,-0.024149956574087843,0.1771509739585469,0.09237674279494507,0.0015936687895315692,0.0009716316913583057,-0.00013639525406220073,-0.004472154237615847,-0.028036892039837943,0.006749648388224986
-0.005585053606381855,0.01815142422074103,0.0767944870877505,9.128356708333332,0.4739880833333333,-3.6448049166666663,-0.0023385296658855067,0.021840284873160486,0.0765650560874087,-0.024149956574087843,0.1771509739585469,0.09237674279494507,0.00022456273381426931,-0.0025131333988020373,0.00021044777192140158,0.024163267907406027,0.004537709221658937,-0.009451421227856548
-0.005585053606381855,0.023038346126325153,0.0767944870877505,9.079323458333333,0.465815875,-3.6284604999999996,-0.0023385296658855067,0.021840284873160486,0.0765650560874087,-0.024149956574087843,0.1771509739585469,0.09237674279494507,-0.0013676885233911305,0.001116664260203824,0.001009531783320805,0.0036178829873552473,0.02095377273674382,-0.0014276587746402491
-0.0027925268031909274,0.020943951023931952,0.0747000919853573,9.07115125,0.42495483333333334,-3.6284604999999996,-0.0023385296658855067,0.021840284873160486,0.0765650560874087,-0.024149956574087843,0.1771509739585469,0.09237674279494507,0.00047152250420981115,0.0002995268269017663,-0.0016700912865919952,-0.012613658494479959,0.020837091731300782,-0.0012181317776553298
-0.0041887902047863905,0.02024581932313422,0.07749261878854824,9.095667875,0.3840937916666667,-3.6284604999999996,-0.0023385296658855067,0.021840284873160486,0.0765650560874087,-0.024149956574087843,0.1771509739585469,0.09237674279494507,-0.0014741248700094883,0.0008104646903685494,-0.00012547102930329343,0.024026057498766747,-0.01998716961743815,-0.00963877617568578
-0.0013962634015954637,0.01884955592153876,0.07819075048934597,9.046634625,0.42495483333333334,-3.6121160833333334,-0.0023385296658855067,0.021840284873160486,0.0765650560874087,-0.024149956574087843,0.1771509739585469,0.09237674279494507,0.0014999458449556926,-0.002335148236076582,0.00011908849929239598,-0.004362264383587658,-0.028080274545158396,-0.013597289131991855
-0.0041887902047863905,0.023038346126325153,0.07819075048934597,9.054806833333332,0.48216029166666663,-3.587599458333333,-0.0023385296658855067,0.021840284873160486,0.0765650560874087,-0.024149956574087843,0.1771509739585469,0.09237674279494507,-0.0009611999284189068,0.0018333463454665861,0.00034123533430587905,-0.004649855125908458,0.06580445299089092,0.01090568257236795
-0.0020943951023931952,0.019547687622336492,0.07749261878854824,9.062979041666667,0.35140495833333335,-3.6121160833333334,-0.0023385296658855067,0.021840284873160486,0.0765650560874087,-0.024149956574087843,0.1771509739585469,0.09237674279494507,0.0012101421745162244,0.002333670126993978,0.0013672073296429874,-0.024795765365388116,-0.02403616322037944,0.03126965022017497
-0.0041887902047863905,0.0153588974175501,0.0747000919853573,9.112012291666666,0.4004382083333333,-3.67749375,-0.0023385296658855067,0.021840284873160486,0.0765650560874087,-0.024149956574087843,0.1771509739585469,0.09237674279494507,-0.001474168187499426,-0.0024164811674198773,-0.0027950953390997848,0.011837171777628277,0.0004577369273284396,-0.034064631778724694
-0.0013962634015954637,0.019547687622336492,0.08028514559173915,9.087495666666666,0.4004382083333333,-3.6121160833333334,-0.0023385296658855067,0.021840284873160486,0.0765650560874087,-0.024149956574087843,0.1771509739585469,0.09237674279494507,0.005401964844362377,-0.01781457926385479,0.011524682563621819,0.29555921981546085,-0.3625703557211953,-0.31275047311155796
-0.003490658503988659,0.02024581932313422,0.08237954069413235,9.062979041666667,0.3840937916666667,-3.6202882916666663,-0.0023385296658855067,0.021840284873160486,0.0765650560874087,-0.024149956574087843,0.1771509739585469,0.09237674279494507,-0.0003432767568421044,-0.00038298705555205373,0.0011198894392334248,-0.03316380946322632,0.00022721994337623804,0.01096471105724468
-0.0027925268031909274,0.020943951023931952,0.08028514559173915,9.128356708333332,0.3840937916666667,-3.6448049166666663,-0.0023385296658855067,0.021840284873160486,0.0765650560874087,-0.024149956574087843,0.1771509739585469,0.09237674279494507,-8.972287354538804e-05,0.00027422806981302857,-0.0003116923704826447,0.056844319161781696,-0.01579763116538787,-0.013687823722871322
-0.0027925268031909274,0.02024581932313422,0.08098327729253688,9.013945791666666,0.416782625,-3.6202882916666663,-0.0023385296658855067,0.021840284873160486,0.0765650560874087,-0.024149956574087843,0.1771509739585469,0.09237674279494507,-0.0006188825960723846,0.002223719526478272,-0.0007594561252873756,-0.024864135260337383,0.020820242307309725,0.01503324308339789
-0.0013962634015954637,0.016057029118347832,0.08237954069413235,9.062979041666667,0.3759215833333333,-3.6529771249999996,-0.0023385296658855067,0.021840284873160486,0.0765650560874087,-0.024149956574087843,0.1771509739585469,0.09237674279494507,0.0007934737496687297,-0.0011823416117962774,0.0021365655007401685,-0.021059083390507626,-0.032295953895969017,0.006687865176364666
-0.0027925268031909274,0.01815142422074103,0.07819075048934597,9.103840083333333,0.44129925,-3.6693215416666662,-0.0023385296658855067,0.021840284873160486,0.0765650560874087,-0.024149956574087843,0.1771509739585469,0.09237674279494507,-0.0006111055078706222,-0.0003989500320538759,0.00074299670604902,0.011918919146896618,-0.0037092762110294787,-0.009457900456146383
-0.0020943951023931952,0.01884955592153876,0.0767944870877505,9.079323458333333,0.4494714583333333,-3.6529771249999996,-0.0023385296658855067,0.021840284873160486,0.0765650560874087,-0.024149956574087843,0.1771509739585469,0.09237674279494507,-0.00010347515057392336,-0.002092463323954223,-0.0013701488457258102,-0.0003863312588674292,0.020896649274267768,-0.009648105271360525
-0.0020943951023931952,0.023038346126325153,0.07958701389094143,9.079323458333333,0.40861041666666664,-3.6366327083333334,-0.0023385296658855067,0.021840284873160486,0.0765650560874087,-0.024149956574087843,0.1771509739585469,0.09237674279494507,-0.00019189769152922007,-0.00029938792601775046,0.0006853483194472317,-0.016653703524172052,0.024960263498199214,-0.001268713096409685
-0.0013962634015954637,0.023736477827122883,0.07819075048934597,9.112012291666666,0.35957716666666667,-3.6366327083333334,-0.0023385296658855067,0.021840284873160486,0.0765650560874087,-0.024149956574087843,0.1771509739585469,0.09237674279494507,0.0009261077558468727,0.001113345132265463,0.00012605277104290845,0.007796415772625132,-0.024130234009352335,0.0028943734593204996
-0.003490658503988659,0.020943951023931952,0.07819075048934597,9.095667875,0.40861041666666664,-3.6448049166666663,-0.0023385296658855067,0.021840284873160486,0.0765650560874087,-0.024149956574087843,0.1771509739585469,0.09237674279494507,-0.00022654576512360394,0.0014067094550682501,0.0019021734594375612,0.01585113534097715,0.004671426980584993,-0.013700316833020768
-0.0027925268031909274,0.01815142422074103,0.0747000919853573,9.062979041666667,0.4004382083333333,-3.6202882916666663,-0.0023385296658855067,0.021840284873160486,0.0765650560874087,-0.024149956574087843,0.1771509739585469,0.09237674279494507,0.004056908233360049,-0.019769016869318007,0.01224656603707852,0.225866786309639,-0.3363429834228048,-0.28770394341454175
-0.0020943951023931952,0.02234021442552742,0.07749261878854824,9.144701125,0.35140495833333335,-3.6448049166666663,-0.0023385296658855067,0.021840284873160486,0.0765650560874087,-0.024149956574087843,0.1771509739585469,0.09237674279494507,-0.00030522268372263776,0.0011555937466905595,-0.0003611042232020487,0.02415361320847793,-0.028193976822811453,-0.009509322101675313
-0.0013962634015954637,0.02024581932313422,0.07819075048934597,9.095667875,0.40861041666666664,-3.6284604999999996,-0.0023385296658855067,0.021840284873160486,0.0765650560874087,-0.024149956574087843,0.1771509739585469,0.09237674279494507,0.0015406535347887228,0.0008309029430966821,0.0002415111854085506,-0.0004738702393312516,-0.01591008390400718,-0.00553695200754977
-0.004886921905584123,0.01815142422074103,0.07819075048934597,9.095667875,0.44129925,-3.6202882916666663,-0.0023385296658855067,0.021840284873160486,0.0765650560874087,-0.024149956574087843,0.1771509739585469,0.09237674279494507,-0.0013076886978116925,-0.002189025517978379,0.0006247768902785813,0.011909842006919675,0.037384248346952344,0.019183545630964558
-0.0020943951023931952,0.02234021442552742,0.0767944870877505,9.07115125,0.367749375,-3.6611493333333334,-0.0023385296658855067,0.021840284873160486,0.0765650560874087,-0.024149956574087843,0.1771509739585469,0.09237674279494507,0.000797800986955926,-0.0006071485278792117,3.87923684234953e-05,-0.012644121725191724,-0.02001712594896414,0.002752481226254707
-0.0041887902047863905,0.023736477827122883,0.0767944870877505,9.095667875,0.40861041666666664,-3.6693215416666662,-0.0023385296658855067,0.021840284873160486,0.0765650560874087,-0.024149956574087843,0.1771509739585469,0.09237674279494507,-0.0004760410192313981,0.003788702378857453,-0.0016360387299626494,0.02417335286327103,0.00867317352903848,-0.025973390722738594
-0.0027925268031909274,0.016057029118347832,0.08028514559173915,9.046634625,0.392266,-3.6202882916666663,-0.0023385296658855067,0.021840284873160486,0.0765650560874087,-0.024149956574087843,0.1771509739585469,0.09237674279494507,-0.0018393245459298433,-0.0014728306456776176,-0.00031364945764172594,-0.012652050124339464,-0.012009826293149922,-0.013578723017927728
0.0006981317007977319,0.01884955592153876,0.08098327729253688,9.07115125,0.416782625,-3.5957716666666664,-0.0023385296658855067,0.021840284873160486,0.0765650560874087,-0.024149956574087843,0.1771509739585469,0.09237674279494507,0.0009440152984653709,-0.0010649788783684583,0.0012152271045682615,-0.01689710664943014,0.020977721607574863,0.03959036129774796
-0.0013962634015954637,0.020943951023931952,0.07819075048934597,9.103840083333333,0.3759215833333333,-3.67749375,-0.0023385296658855067,0.021840284873160486,0.0765650560874087,-0.024149956574087843,0.1771509739585469,0.09237674279494507,-6.969866574651239e-06,0.0015903261824314386,-0.0003165631805975977,0.003792132488065383,-0.011876910515357952,-0.017957731281713643
-0.0006981317007977319,0.017453292519943295,0.07888888219014369,9.095667875,0.4004382083333333,-3.6448049166666663,-0.0023385296658855067,0.021840284873160486,0.0765650560874087,-0.024149956574087843,0.1771509739585469,0.09237674279494507,-0.00019351550185387004,-0.0018801583416202792,0.0002686614779320282,0.02399886253403435,-0.02405999420329941,-0.02173944391562349
-0.0006981317007977319,0.021642082724729686,0.07819075048934597,9.046634625,0.4494714583333333,-3.6039438749999997,-0.0023385296658855067,0.021840284873160486,0.0765650560874087,-0.024149956574087843,0.1771509739585469,0.09237674279494507,0.005007495012830967,-0.019054197057934902,0.01431350894502711,0.2488448054762052,-0.32293212682434774,-0.2766767348603824
-0.0013962634015954637,0.023038346126325153,0.07819075048934597,9.112012291666666,0.3759215833333333,-3.6366327083333334,-0.0023385296658855067,0.021840284873160486,0.0765650560874087,-0.024149956574087843,0.1771509739585469,0.09237674279494507,-6.349008071968924e-05,0.0011319784459870308,-0.001938409088158651,0.020199981200029256,-0.028320747198371188,0.006903908402980396
-0.0013962634015954637,0.020943951023931952,0.08168140899333462,9.07115125,0.43312704166666666,-3.6529771249999996,-0.0023385296658855067,0.021840284873160486,0.0765650560874087,-0.024149956574087843,0.1771509739585469,0.09237674279494507,0.00029233911793105606,4.141484450954039e-06,0.0003971123192168776,0.007752129388773827,-0.011730953154989834,-0.009526594430061985
-0.0020943951023931952,0.020943951023931952,0.08098327729253688,9.054806833333332,0.45764366666666667,-3.6366327083333334,-0.0023385296658855067,0.021840284873160486,0.0765650560874087,-0.024149956574087843,0.1771509739585469,0.09237674279494507,-0.001011490214768148,0.0020438544613003043,0.0008359579098172055,-0.01272933441687624,0.03704126459915674,0.014895064239135154
0.0,0.016755160819145562,0.07958701389094143,9.079323458333333,0.3840937916666667,-3.6693215416666662,-0.0023385296658855067,0.021840284873160486,0.0765650560874087,-0.024149956574087843,0.1771509739585469,0.09237674279494507,0.0014098074152881599,-0.0006064517586917201,0.0012227025068304593,0.003605392438950745,-0.019979904241300604,0.006829708882168615
-0.0027925268031909274,0.01815142422074103,0.07749261878854824,9.07115125,0.42495483333333334,-3.6856659583333333,-0.0023385296658855067,0.021840284873160486,0.0765650560874087,-0.024149956574087843,0.1771509739585469,0.09237674279494507,0.00045531304098987376,-0.0005080765328040515,-0.00017318468177190093,-0.008530039679101058,-0.0076307842641404776,-0.02189023192131839
-0.003490658503988659,0.01884955592153876,0.07749261878854824,9.087495666666666,0.44129925,-3.6448049166666663,-0.0023385296658855067,0.021840284873160486,0.0765650560874087,-0.024149956574087843,0.1771509739585469,0.09237674279494507,-0.0014427157772302485,-0.0012005323793075247,0.0008277447758329744,-0.008613991746025122,0.00867174862349665,-0.0011957712383106418
-0.0006981317007977319,0.020943951023931952,0.07609635538695278,9.103840083333333,0.42495483333333334,-3.6448049166666663,-0.0023385296658855067,0.021840284873160486,0.0765650560874087,-0.024149956574087843,0.1771509739585469,0.09237674279494507,0.0006829689379037357,0.0019396571092324707,0.0005069748984282993,-0.00036734633496390736,0.01683090904919571,-0.009717908449704311
-0.0020943951023931952,0.017453292519943295,0.0747000919853573,9.103840083333333,0.392266,-3.6284604999999996,-0.0023385296658855067,0.021840284873160486,0.0765650560874087,-0.024149956574087843,0.1771509739585469,0.09237674279494507,-0.0002730057117837429,-0.0010584754180090368,-7.256066140447307e-05,0.003548633297863303,-0.023932940984973478,-0.0013204292186399966
-0.0013962634015954637,0.019547687622336492,0.07539822368615504,9.095667875,0.44129925,-3.6284604999999996,-0.0023385296658855067,0.021840284873160486,0.0765650560874087,-0.024149956574087843,0.1771509739585469,0.09237674279494507,5.7369952008780435e-05,-0.001718683229506427,-0.0012392438629080572,0.007952015329930628,0.024886225520858105,-0.005472948926717531
-0.0013962634015954637,0.023038346126325153,0.07819075048934597,9.079323458333333,0.392266,-3.6202882916666663,-0.0023385296658855067,0.021840284873160486,0.0765650560874087,-0.024149956574087843,0.1771509739585469,0.09237674279494507,0.005650798665177996,-0.016402951808605036,0.01674317765190667,0.2410877921332307,-0.350393945630521,-0.25115977042875043
-0.0020943951023931952,0.019547687622336492,0.0747000919853573,9.144701125,0.392266,-3.6693215416666662,-0.0023385296658855067,0.021840284873160486,0.0765650560874087,-0.024149956574087843,0.1771509739585469,0.09237674279494507,-0.0004912951343622437,0.0016708952300431765,-0.0011389683087864673,0.028252640654855374,-0.0076405549591600525,-0.009572837541554474
-0.0013962634015954637,0.016755160819145562,0.07749261878854824,9.087495666666666,0.40861041666666664,-3.6529771249999996,-0.0023385296658855067,0.021840284873160486,0.0765650560874087,-0.024149956574087843,0.1771509739585469,0.09237674279494507,-0.00043109809959439126,-0.001201115402215913,-0.0002497731016186687,0.00764610385312419,-0.020060823992980807,-0.03809677491869992
-0.0006981317007977319,0.01884955592153876,0.07749261878854824,9.07115125,0.4494714583333333,-3.5794272499999997,-0.0023385296658855067,0.021840284873160486,0.0765650560874087,-0.024149956574087843,0.1771509739585469,0.09237674279494507,4.0479784192984485e-06,-0.0008967684062933572,-4.098283819723275e-05,-0.004339754786524408,0.024969564375175876,0.023131900174710642
-0.0006981317007977319,0.020943951023931952,0.07749261878854824,9.079323458333333,0.4004382083333333,-3.6284604999999996,-0.0023385296658855067,0.021840284873160486,0.0765650560874087,-0.024149956574087843,0.1771509739585469,0.09237674279494507,-0.0013457282169727879,0.00029220098095769203,0.000447180443027264,-0.008550210209485612,-0.023929412577788176,-0.005379450022857781
0.0020943951023931952,0.02024581932313422,0.07749261878854824,9.095667875,0.4494714583333333,-3.6202882916666663,-0.0023385296658855067,0.021840284873160486,0.0765650560874087,-0.024149956574087843,0.1771509739585469,0.09237674279494507,-0.0008764889673558947,0.0012953037519568683,0.0004521531866247277,0.007721846456727041,0.012587303129493285,-0.01369210491850015
0.003490658503988659,0.017453292519943295,0.07609635538695278,9.079323458333333,0.42495483333333334,-3.5957716666666664,-0.0023385296658855067,0.021840284873160486,0.0765650560874087,-0.024149956574087843,0.1771509739585469,0.09237674279494507,0.0029767125249863958,-0.0022524207466240176,-0.0017728862241088374,-0.004532381813073562,0.004651394134952819,0.010963157090583578
-0.0020943951023931952,0.021642082724729686,0.08028514559173915,9.087495666666666,0.416782625,-3.6202882916666663,-0.0023385296658855067,0.021840284873160486,0.0765650560874087,-0.024149956574087843,0.1771509739585469,0.09237674279494507,-0.00016752071690673823,0.0009517844171231654,0.00012860705232612885,-0.008505489273487026,-0.0038047263549694584,0.027123754337473948
-0.0020943951023931952,0.019547687622336492,0.07958701389094143,9.103840083333333,0.42495483333333334,-3.67749375,-0.0023385296658855067,0.021840284873160486,0.0765650560874087,-0.024149956574087843,0.1771509739585469,0.09237674279494507,0.0011373408503495685,-0.001555381165607576,0.0002989685993203185,0.011763630937170276,-0.03214500358730445,-0.021560071479851433
-0.0041887902047863905,0.023038346126325153,0.07888888219014369,9.079323458333333,0.4903325,-3.6366327083333334,-0.0023385296658855067,0.021840284873160486,0.0765650560874087,-0.024149956574087843,0.1771509739585469,0.09237674279494507,-0.00016498657679097096,0.0010778889108222028,0.0005378952185070947,-0.0003708465976565244,0.020745163043037706,-0.009560472237086538
-0.0041887902047863905,0.02024581932313422,0.07819075048934597,9.079323458333333,0.4494714583333333,-3.6202882916666663,-0.0023385296658855067,0.021840284873160486,0.0765650560874087,-0.024149956574087843,0.1771509739585469,0.09237674279494507,-0.0008315578627955907,-0.0012231660651355596,0.0008752105052833445,-0.004370066198949864,0.016962509387858295,-0.0013890239158213793
-0.0020943951023931952,0.023038346126325153,0.0767944870877505,9.087495666666666,0.416782625,-3.6202882916666663,-0.0023385296658855067,0.021840284873160486,0.0765650560874087,-0.024149956574087843,0.1771509739585469,0.09237674279494507,0.0053726078873769685,-0.016794294175294506,0.01610186700213517,0.29650905471996897,-0.4003749409993996,-0.30609543086700525
-0.0020943951023931952,0.017453292519943295,0.07609635538695278,9.103840083333333,0.465815875,-3.5957716666666664,-0.0023385296658855067,0.021840284873160486,0.0765650560874087,-0.024149956574087843,0.1771509739585469,0.09237674279494507,-0.0014647137523893664,-0.001138224356282846,-0.0004707362954697096,0.011827552293109124,0.028994845775101287,0.02311759679105611
0.0013962634015954637,0.019547687622336492,0.07749261878854824,9.079323458333333,0.40861041666666664,-3.6448049166666663,-0.0023385296658855067,0.021840284873160486,0.0765650560874087,-0.024149956574087843,0.1771509739585469,0.09237674279494507,0.0026519392166210005,0.0009084156529714564,-6.8408454504643e-05,-0.008439965855864274,0.0250253742255778,0.0027774454625447585
-0.0041887902047863905,0.017453292519943295,0.07749261878854824,9.095667875,0.35957716666666667,-3.6529771249999996,-0.0023385296658855067,0.021840284873160486,0.0765650560874087,-0.024149956574087843,0.1771509739585469,0.09237674279494507,-1.1163766127753993e-05,-0.0010152946670459236,-0.001498507175157393,0.003559873985900748,-0.044533103585824386,0.002572374356913018
-0.0041887902047863905,0.019547687622336492,0.08028514559173915,9.087495666666666,0.4494714583333333,-3.6611493333333334,-0.0023385296658855067,0.021840284873160486,0.0765650560874087,-0.024149956574087843,0.1771509739585469,0.09237674279494507,-0.0015992771656054433,-0.0011832284123224413,0.0005730066883222597,0.0201562189277521,-0.0035949679112683743,-0.00942508560833723
-0.0006981317007977319,0.021642082724729686,0.07958701389094143,9.046634625,0.45764366666666667,-3.6448049166666663,-0.0023385296658855067,0.021840284873160486,0.0765650560874087,-0.024149956574087843,0.1771509739585469,0.09237674279494507,0.0019116752441815342,0.002349514003685706,-2.297996098412518e-05,-0.016803542323875084,0.05352838247713675,0.0026222507826917803
-0.004886921905584123,0.017453292519943295,0.07958701389094143,9.079323458333333,0.35140495833333335,-3.6529771249999996,-0.0023385296658855067,0.021840284873160486,0.0765650560874087,-0.024149956574087843,0.1771509739585469,0.09237674279494507,-0.00028515866851276146,-0.0013059141695377736,-8.704950835422507e-05,-0.020987733315147646,-0.019992921474589937,-0.001361225329361363
-0.0041887902047863905,0.02024581932313422,0.08028514559173915,9.1201845,0.392266,-3.6529771249999996,-0.0023385296658855067,0.021840284873160486,0.0765650560874087,-0.024149956574087843,0.1771509739585469,0.09237674279494507,0.0009582807631656609,-0.00037813171340535825,0.0032565105260613262,0.02824684480876669,-0.03222128068907489,-0.00542629735016644
-0.005585053606381855,0.02024581932313422,0.07330382858376185,9.062979041666667,0.45764366666666667,-3.6448049166666663,-0.0023385296658855067,0.021840284873160486,0.0765650560874087,-0.024149956574087843,0.1771509739585469,0.09237674279494507,-0.0025677109999068764,-0.0008523709470719666,-0.0013169640049302306,0.003805221448593925,0.020904687393616544,0.0027138950303624352
-0.0006981317007977319,0.02234021442552742,0.07609635538695278,9.054806833333332,0.416782625,-3.6529771249999996,-0.0023385296658855067,0.021840284873160486,0.0765650560874087,-0.024149956574087843,0.1771509739585469,0.09237674279494507,0.00513714857954206,-0.016403934890801258,0.012914823009076181,0.23678583434011266,-0.26924331663320217,-0.20990364939192
-0.0013962634015954637,0.02024581932313422,0.07888888219014369,9.087495666666666,0.367749375,-3.6693215416666662,-0.0023385296658855067,0.021840284873160486,0.0765650560874087,-0.024149956574087843,0.1771509739585469,0.09237674279494507,0.0006601146342297954,0.0009524283896541442,-0.0006114007348625309,0.024201983460165995,0.004460842446032352,-0.009518857089869975
-0.0027925268031909274,0.01815142422074103,0.07958701389094143,9.038462416666666,0.35957716666666667,-3.6529771249999996,-0.0023385296658855067,0.021840284873160486,0.0765650560874087,-0.024149956574087843,0.1771509739585469,0.09237674279494507,-0.0014192119247361352,-0.0019852154156085318,-0.0004196442824387707,-0.012754551665726924,0.00044474923584528176,-0.013564757666521422
0.0,0.02234021442552742,0.08028514559173915,9.062979041666667,0.35957716666666667,-3.6284604999999996,-0.0023385296658855067,0.021840284873160486,0.0765650560874087,-0.024149956574087843,0.1771509739585469,0.09237674279494507,-0.0009907528088315058,0.00047444513801331723,3.837723038603161e-05,0.0037002252859336367,-0.01591087087555168,0.04350103468658716
0.0020943951023931952,0.020943951023931952,0.08098327729253688,9.054806833333332,0.392266,-3.718354791666666,-0.0023385296658855067,0.021840284873160486,0.0765650560874087,-0.024149956574087843,0.1771509739585469,0.09237674279494507,0.0016371069115090286,-0.0012530700102801329,0.0006074313184971858,0.032459034379689417,-0.04452625302194198,-0.017576761455538582
-0.0013962634015954637,0.023736477827122883,0.07958701389094143,8.989429166666666,0.48216029166666663,-3.6856659583333333,-0.0023385296658855067,0.021840284873160486,0.0765650560874087,-0.024149956574087843,0.1771509739585469,0.09237674279494507,0.0037679323604630907,0.0035207661692771438,-0.003195824877963188,-0.04140278435791539,-0.11406820849510649,0.0068797924024538125
-0.009075712110370514,0.016755160819145562,0.08587019919812101,9.07115125,0.7109821249999999,-3.702010375,-0.0023385296658855067,0.021840284873160486,0.0765650560874087,-0.024149956574087843,0.1771509739585469,0.09237674279494507,0.006405243022516313,0.0009662897087514489,-0.0017970517081735728,-0.029020187683527796,0.04519573582453025,0.023055237214892794
-0.021642082724729686,0.014660765716752367,0.08936085770210968,9.128356708333332,0.6210878333333334,-3.751043625,-0.0023385296658855067,0.021840284873160486,0.0765650560874087,-0.024149956574087843,0.1771509739585469,0.09237674279494507,0.0034685614902873643,-0.003977088621533248,0.0007422207225483141,0.04452863647710304,0.11496637497930606,-0.06682877896559979
-0.028623399732707,0.02234021442552742,0.0879645943005142,9.038462416666666,0.392266,-3.6202882916666663,-0.0023385296658855067,0.021840284873160486,0.0765650560874087,-0.024149956574087843,0.1771509739585469,0.09237674279494507,-0.008333135988129745,0.008505819886721298,-0.003106102444237749,-0.08623465458912964,0.24553629659108536,0.018826012660013068
-0.011868238913561441,0.005585053606381855,0.09494591130849153,9.210078791666666,-0.0980665,-3.6611493333333334,-0.0023385296658855067,0.021840284873160486,0.0765650560874087,-0.024149956574087843,0.1771509739585469,0.09237674279494507,-0.01389226383801668,-0.018993774453405818,0.012391431751648894,0.07718713011868716,0.28203626344971067,-0.14008025619604272
0.016057029118347832,0.04328416544945937,0.06981317007977318,9.054806833333332,-0.661948875,-3.3832942499999996,-0.0023385296658855067,0.021840284873160486,0.0765650560874087,-0.024149956574087843,0.1771509739585469,0.09237674279494507,-0.027947637972229787,-0.00018523815821493134,0.02361110925681481,0.16186217503456007,-0.45786683019391,-0.12248295874585557
0.06771877497737998,0.008377580409572781,0.05794493116621174,9.234595416666666,-0.24516625,-3.6121160833333334,-0.0023385296658855067,0.021840284873160486,0.0765650560874087,-0.024149956574087843,0.1771509739585469,0.09237674279494507,-0.008503759304669187,-0.002699723638681117,0.0037155035767676677,0.10565135637905644,-0.45722179325177925,0.01863830078174743
0.08447393579652555,0.013962634015954637,0.050963614158234416,9.022118,0.6701210833333332,-3.6529771249999996,-0.0023385296658855067,0.021840284873160486,0.0765650560874087,-0.024149956574087843,0.1771509739585469,0.09237674279494507,0.017486860239998448,-0.011972332598406044,0.006829840177904948,0.08519023611542091,-0.4899139102477055,-0.009591386622640237
0.04956735075663895,0.03839724354387525,0.03700098014227979,8.850501625,1.6507860833333332,-3.6366327083333334,-0.0023385296658855067,0.021840284873160486,0.0765650560874087,-0.024149956574087843,0.1771509739585469,0.09237674279494507,0.03453742894404974,0.019496752572855634,-0.016275496028823905,-0.10259265064170496,-0.28520100728408854,0.12927135905015275
-0.019547687622336492,-0.0013962634015954637,0.06981317007977318,9.054806833333332,2.2228406666666665,-3.898143375,-0.0023385296658855067,0.021840284873160486,0.0765650560874087,-0.024149956574087843,0.1771509739585469,0.09237674279494507,0.039455926720958635,-0.0025636198170398096,-0.005129409315202624,0.08520500400920979,0.10320979190212169,-0.13627786339636955
-0.09843656981248018,0.0041887902047863905,0.08028514559173915,8.883190458333333,2.0185354583333335,-3.6284604999999996,-0.0023385296658855067,0.021840284873160486,0.0765650560874087,-0.024149956574087843,0.1771509739585469,0.09237674279494507,0.020146513047000235,-0.005159490294816334,-0.016534378028458457,-0.22516240490527956,0.8184186079522004,0.09241796296372982
-0.13823007675795088,0.014660765716752367,0.11309733552923257,9.332661916666666,0.3840937916666667,-3.8164212916666664,-0.0023385296658855067,0.021840284873160486,0.0765650560874087,-0.024149956574087843,0.1771509739585469,0.09237674279494507,-0.01223271487823035,-0.007465995600903375,0.00982861894719319,0.2160061258806271,0.6506791189202311,-0.18959105147641028
-0.11379546723003027,0.029321531433504733,0.09354964790689606,8.899534874999999,-0.9152873333333333,-3.4404997083333333,-0.0023385296658855067,0.021840284873160486,0.0765650560874087,-0.024149956574087843,0.1771509739585469,0.09237674279494507,-0.04066159046125455,0.014254009988256123,-0.012358683117013287,-0.08211764111696912,0.06576087835698488,-0.03032450625457053
-0.032812189937493394,0.0006981317007977319,0.11798425743481668,9.062979041666667,-1.0460426666666667,-3.3832942499999996,-0.0023385296658855067,0.021840284873160486,0.0765650560874087,-0.024149956574087843,0.1771509739585469,0.09237674279494507,-0.0335470527406554,-0.008581514695200462,0.012607593284420685,-0.16819179551110855,-0.06556192455450445,0.08417410978839043
0.03420845333908886,0.01815142422074103,0.09285151620609833,9.398039583333333,-0.9152873333333333,-3.5549106249999998,-0.0023385296658855067,0.021840284873160486,0.0765650560874087,-0.024149956574087843,0.1771509739585469,0.09237674279494507,-0.022389065989559066,-0.01832647921294475,0.014966340396602693,0.14689924949699584,-0.2491505748992812,-0.11529082137812934
0.07888888219014369,0.05445427266222308,0.0635299847725936,9.103840083333333,-0.416782625,-3.3260887916666664,-0.0023385296658855067,0.021840284873160486,0.0765650560874087,-0.024149956574087843,0.1771509739585469,0.09237674279494507,-0.006627353305810375,0.016183447655342603,0.013461087461431313,0.18597544558482182,-0.9266585137342979,-0.03959338162290485
0.09773843811168245,-0.01117010721276371,0.06562437987498679,9.250939833333334,0.5965712083333333,-3.6529771249999996,-0.0023385296658855067,0.021840284873160486,0.0765650560874087,-0.024149956574087843,0.1771509739585469,0.09237674279494507,0.007388246613917191,-0.018918554908543606,-0.006085716270277502,-0.15176699872689298,-0.2658649025173115,0.11669418792522346
0.08307767239493008,0.02652900463031381,0.07819075048934597,9.553311541666666,1.12776475,-3.8899711666666663,-0.0023385296658855067,0.021840284873160486,0.0765650560874087,-0.024149956574087843,0.1771509739585469,0.09237674279494507,0.02775006287204794,-0.014428349466255335,0.006671064957036629,0.5514149559382391,-0.16335746259358241,-0.09923321537882206
0.02722713633111154,0.05585053606381855,0.06492624817418906,8.450063416666666,1.4546530833333333,-3.693838166666666,-0.0023385296658855067,0.021840284873160486,0.0765650560874087,-0.024149956574087843,0.1771509739585469,0.09237674279494507,0.021524931747826895,0.023495534655851816,-0.018630578698550736,-0.38022294160379916,-0.016171996537109597,0.04379458596560076
-0.016057029118347832,0.008377580409572781,0.10192722831646883,9.210078791666666,1.4873419166666666,-3.7837324583333327,-0.0023385296658855067,0.021840284873160486,0.0765650560874087,-0.024149956574087843,0.1771509739585469,0.09237674279494507,0.020735982875744872,-0.012517616080519288,0.005059338749991865,0.08543089732611635,0.2783068309406535,-0.02166515741496157
-0.057246799465414,0.033510321638291124,0.09215338450530061,9.038462416666666,0.93163175,-3.742871416666666,-0.0023385296658855067,0.021840284873160486,0.0765650560874087,-0.024149956574087843,0.1771509739585469,0.09237674279494507,0.01060148200600862,0.007793685488155127,-0.002512325021393273,-0.049345397285823774,0.11515061972206823,-0.005263182269167526
-0.07819075048934597,0.01815142422074103,0.09704030641088471,9.136528916666666,0.7028099166666667,-3.7346992083333332,-0.0023385296658855067,0.021840284873160486,0.0765650560874087,-0.024149956574087843,0.1771509739585469,0.09237674279494507,0.0005477608141236767,0.00023145560642548222,0.006294641737616289,0.10985655379408281,0.2664126612688775,-0.11980482016428076
-0.07958701389094143,0.017453292519943295,0.08447393579652555,8.915879291666666,0.17161637500000002,-3.4977051666666665,-0.0023385296658855067,0.021840284873160486,0.0765650560874087,-0.024149956574087843,0.1771509739585469,0.09237674279494507,-0.016302083658791478,-0.007173476028084289,-0.001123833134547793,-0.2659409754374704,0.3521725053192732,0.023117540385187724
-0.04677482395344803,0.031415926535897934,0.08726646259971647,9.447072833333333,-0.5311935416666667,-3.546738416666667,-0.0023385296658855067,0.021840284873160486,0.0765650560874087,-0.024149956574087843,0.1771509739585469,0.09237674279494507,-0.02509667711592746,0.007967539279352323,0.009085697751912276,0.44498549934061404,0.008767541713991436,-0.08310601378809178
0.0027925268031909274,0.0153588974175501,0.06911503837897544,8.556302125,-0.5475379583333333,-3.3832942499999996,-0.0023385296658855067,0.021840284873160486,0.0765650560874087,-0.024149956574087843,0.1771509739585469,0.09237674279494507,-0.018270171372110785,-0.006418504581715236,0.007280345466504104,-0.7031168077238197,-0.10959160823749788,0.19902551418104625
0.039793506945470715,0.028623399732707,0.05445427266222308,9.961921958333333,-0.32688833333333334,-3.7837324583333327,-0.0023385296658855067,0.021840284873160486,0.0765650560874087,-0.024149956574087843,0.1771509739585469,0.09237674279494507,-0.003195289948079704,-0.03669069706122568,0.014817825012486154,1.003464840544807,-0.5277898021882945,-0.3334204116088187
0.06562437987498679,0.050963614158234416,0.060039326268604934,8.621679791666667,0.196133,-3.5222217916666665,-0.0023385296658855067,0.021840284873160486,0.0765650560874087,-0.024149956574087843,0.1771509739585469,0.09237674279494507,-0.003367896812446981,0.008839824585767042,0.0029511094829305783,-0.1106415961799657,-0.3060659682561972,-0.013209820367463095
0.07260569688296412,0.033510321638291124,0.05375614096142535,8.842329416666665,0.809048625,-3.4977051666666665,-0.0023385296658855067,0.021840284873160486,0.0765650560874087,-0.024149956574087843,0.1771509739585469,0.09237674279494507,0.012666311757634777,0.005984767582310342,-0.01183933326799838,-0.2577187171711531,-0.18790006394066092,0.16605907819961435
0.04677482395344803,0.021642082724729686,0.07749261878854824,9.357178541666666,1.1849702083333333,-3.832765708333333,-0.0023385296658855067,0.021840284873160486,0.0765650560874087,-0.024149956574087843,0.1771509739585469,0.09237674279494507,0.02492712463214622,-0.010204251380255118,0.007264133302963617,0.2856384747027178,-0.06904107644766305,-0.10728408222533233
-0.0027925268031909274,0.041887902047863905,0.06283185307179587,8.785123958333333,1.32389775,-3.6202882916666663,-0.0023385296658855067,0.021840284873160486,0.0765650560874087,-0.024149956574087843,0.1771509739585469,0.09237674279494507,0.01880585057848118,0.0211329685951133,-0.017153961055077934,-0.06168798037376643,0.17637059633875082,0.015095913409096138
-0.04049163864626844,-0.0006981317007977319,0.09773843811168245,8.907707083333333,0.9724927916666666,-3.6529771249999996,-0.0023385296658855067,0.021840284873160486,0.0765650560874087,-0.024149956574087843,0.1771509739585469,0.09237674279494507,0.010641833801185855,-0.012842896805651425,0.0033247462380013703,-0.053499650069001536,0.17212339559024964,-0.06280417186383405
-0.0614355896702004,0.025132741228718346,0.09075712110370514,9.013945791666666,0.6292600416666666,-3.530394,-0.0023385296658855067,0.021840284873160486,0.0765650560874087,-0.024149956574087843,0.1771509739585469,0.09237674279494507,-0.001652055121786404,0.008746282820802498,-0.008270416128330163,-0.029084541291673004,0.26194456745910105,0.05157750144055519
-0.05864306286700947,0.006981317007977318,0.1075122819228507,9.07115125,0.10623870833333333,-3.6366327083333334,-0.0023385296658855067,0.021840284873160486,0.0765650560874087,-0.024149956574087843,0.1771509739585469,0.09237674279494507,-0.009129008870277308,-0.0027618501354394896,0.00781654426931807,-0.12315626398246816,0.11475342862804211,-0.07104517108108137
-0.04049163864626844,0.013264502315156905,0.09215338450530061,9.316317499999998,-0.122583125,-3.4977051666666665,-0.0023385296658855067,0.021840284873160486,0.0765650560874087,-0.024149956574087843,0.1771509739585469,0.09237674279494507,-0.015308527038261294,-0.008741792377022342,0.0024080612414624477,0.07738277697882216,0.09857631634757952,0.006880683862013348
-0.009773843811168246,0.030019663134302467,0.08726646259971647,9.161045541666667,-0.318716125,-3.514049583333333,-0.0023385296658855067,0.021840284873160486,0.0765650560874087,-0.024149956574087843,0.1771509739585469,0.09237674279494507,-0.018373740659250726,0.0051910156835680435,0.008008441219816599,0.1098362986687633,0.020768436619490217,-0.0177246711692465
0.02722713633111154,0.02024581932313422,0.07120943348136866,8.940395916666665,-0.35957716666666667,-3.4813607499999994,-0.0023385296658855067,0.021840284873160486,0.0765650560874087,-0.024149956574087843,0.1771509739585469,0.09237674279494507,-0.003987714455701957,-0.016455100590183055,0.019514876536884704,-0.16402929184004017,-0.47406109380319156,0.03055129987427442
0.050963614158234416,0.020943951023931952,0.06562437987498679,9.545139333333333,0.0,-3.8164212916666664,-0.0023385296658855067,0.021840284873160486,0.0765650560874087,-0.024149956574087843,0.1771509739585469,0.09237674279494507,-0.003677881813309538,-0.016476563319789247,0.0005677154878348256,0.2858891722582395,-0.3472029570862389,-0.15227582285261854
0.05864306286700947,0.05375614096142535,0.06492624817418906,8.97308475,0.6946377083333333,-3.514049583333333,-0.0023385296658855067,0.021840284873160486,0.0765650560874087,-0.024149956574087843,0.1771509739585469,0.09237674279494507,0.008432184277327464,0.01319241539382636,-0.008462833319828163,0.01201089563510038,-0.09793901603283403,0.06433402834524286
0.041189770347066175,0.02722713633111154,0.08168140899333462,8.948568125,0.8907707083333333,-3.6448049166666663,-0.0023385296658855067,0.021840284873160486,0.0765650560874087,-0.024149956574087843,0.1771509739585469,0.09237674279494507,0.013504020319655146,-0.0016700650293017952,0.0024100361895580476,0.016041089952877115,-0.06922225195049923,-0.029755169002219146
0.014660765716752367,0.0307177948351002,0.0767944870877505,8.915879291666666,1.0296982499999998,-3.587599458333333,-0.0023385296658855067,0.021840284873160486,0.0765650560874087,-0.024149956574087843,0.1771509739585469,0.09237674279494507,0.019858122065829365,0.012620268689951648,-0.0029475976137835038,-0.004585973947200386,0.029016768784185597,-0.009484149670041074
-0.025132741228718346,0.004886921905584123,0.08307767239493008,8.9240515,0.9724927916666666,-3.571255041666667,-0.0023385296658855067,0.021840284873160486,0.0765650560874087,-0.024149956574087843,0.1771509739585469,0.09237674279494507,0.009027785034229083,0.00014592765817337278,0.005269662628727824,-0.16804353563593258,0.2826283030959062,0.07985234055450346
-0.04328416544945937,0.004886921905584123,0.07190756518216637,9.259112041666667,0.40861041666666664,-3.7346992083333332,-0.0023385296658855067,0.021840284873160486,0.0765650560874087,-0.024149956574087843,0.1771509739585469,0.09237674279494507,-0.007579701926661324,-0.00908979028814551,0.003228931763657178,-0.04547951298490141,0.16444656683657033,-0.001449695666266403
-0.027925268031909273,0.023038346126325153,0.06632251157578452,9.349006333333334,0.08172208333333333,-3.7346992083333332,-0.0023385296658855067,0.021840284873160486,0.0765650560874087,-0.024149956574087843,0.1771509739585469,0.09237674279494507,-0.008404518112761964,0.0065737519408632,-0.009469111334958303,0.22031913002772258,-0.052341515536906885,-0.07902756212340417
-0.01117010721276371,0.009773843811168246,0.08447393579652555,8.907707083333333,0.18796079166666665,-3.5794272499999997,-0.0023385296658855067,0.021840284873160486,0.0765650560874087,-0.024149956574087843,0.1771509739585469,0.09237674279494507,-0.0023390917552280296,-0.011816475384594183,-0.0031769212672653094,-0.2578971356630346,-0.22045860324139607,0.080460514707349
-0.006981317007977318,0.033510321638291124,0.09145525280450287,9.422556208333333,0.6292600416666666,-3.742871416666666,-0.0023385296658855067,0.021840284873160486,0.0765650560874087,-0.024149956574087843,0.1771509739585469,0.09237674279494507,0.007124273214613728,-0.002664620154710817,-0.001777089497567523,0.24099252357415057,-0.1509910546889326,-0.10724253300333031
-0.020943951023931952,0.03839724354387525,0.09494591130849153,8.940395916666665,0.93163175,-3.530394,-0.0023385296658855067,0.021840284873160486,0.0765650560874087,-0.024149956574087843,0.1771509739585469,0.09237674279494507,0.02863299556335461,-0.009769879955683366,0.014658791913836507,0.3812761145161203,-0.24461126671188274,-0.2430064841731726
-0.0439822971502571,0.02024581932313422,0.0942477796076938,8.842329416666665,0.612915625,-3.4486719166666666,-0.0023385296658855067,0.021840284873160486,0.0765650560874087,-0.024149956574087843,0.1771509739585469,0.09237674279494507,0.0007946444968312013,0.0014352564185456517,0.007248940268612759,-0.08645197559157217,0.31522346746952107,0.05979119705013445
-0.04537856055185257,0.017453292519943295,0.07958701389094143,9.013945791666666,-0.016344416666666667,-3.571255041666667,-0.0023385296658855067,0.021840284873160486,0.0765650560874087,-0.024149956574087843,0.1771509739585469,0.09237674279494507,-0.020694077456536977,0.00261786026949254,0.006372056421967553,-0.12281270158243542,0.4748318064838343,0.03120335788387969
-0.0041887902047863905,0.012566370614359173,0.06702064327658225,9.259112041666667,-0.9643205833333333,-3.6366327083333334,-0.0023385296658855067,0.021840284873160486,0.0765650560874087,-0.024149956574087843,0.1771509739585469,0.09237674279494507,-0.03525077391794338,-0.0016778365558976314,0.0013461500857722642,0.0035933004132142734,-0.05277824481167709,-0.005426656505103602
0.06632251157578452,0.0153588974175501,0.06492624817418906,9.250939833333334,-0.8580818749999999,-3.6284604999999996,-0.0023385296658855067,0.021840284873160486,0.0765650560874087,-0.024149956574087843,0.1771509739585469,0.09237674279494507,-0.027114016198061478,-0.010466644020738285,0.002572803032309829,-0.05343377174481929,-0.580304654038141,0.08041555644915413
0.12077678423800758,0.03630284844148206,0.059341194567807204,9.357178541666666,0.3023717083333333,-3.7919046666666665,-0.0023385296658855067,0.021840284873160486,0.0765650560874087,-0.024149956574087843,0.1771509739585469,0.09237674279494507,0.01042106406371264,-0.0013729248491430404,-0.00980901041288955,0.37563742384569604,-0.6868681213726825,-0.14452318582217355
0.09983283321407566,0.039095375244672985,0.07888888219014369,8.605335375,1.6753027083333332,-3.505877375,-0.0023385296658855067,0.021840284873160486,0.0765650560874087,-0.024149956574087843,0.1771509739585469,0.09237674279494507,0.0431414373552998,0.011325736582011605,0.0004895964221813255,-0.25783668326105186,-0.3107215491866943,0.1988080093220658
0.013962634015954637,0.016755160819145562,0.07819075048934597,9.1201845,2.2963905416666663,-3.906315583333333,-0.0023385296658855067,0.021840284873160486,0.0765650560874087,-0.024149956574087843,0.1771509739585469,0.09237674279494507,0.04176936256395973,-0.0050239180540708325,0.0003791099197527987,0.10588249444585497,0.21328031395762148,-0.16877502052584992
-0.06981317007977318,0.02652900463031381,0.07819075048934597,8.907707083333333,1.871435708333333,-3.571255041666667,-0.0023385296658855067,0.021840284873160486,0.0765650560874087,-0.024149956574087843,0.1771509739585469,0.09237674279494507,0.02285844623028436,0.01898178567883227,-0.007859106354839412,0.02408711668542871,0.5282197394282577,0.03119322517872047
-0.11519173063162574,-0.01117010721276371,0.09354964790689606,8.858673833333333,0.8172208333333333,-3.6366327083333334,-0.0023385296658855067,0.021840284873160486,0.0765650560874087,-0.024149956574087843,0.1771509739585469,0.09237674279494507,-0.0040717341739726605,-0.012067895965091103,0.007245465363573491,-0.18039566789602007,0.5652630762966112,0.026657510131338352
-0.1075122819228507,0.012566370614359173,0.07888888219014369,9.218250999999999,-0.3105439166666667,-3.693838166666666,-0.0023385296658855067,0.021840284873160486,0.0765650560874087,-0.024149956574087843,0.1771509739585469,0.09237674279494507,-0.022435540387424017,-0.01779396609067759,0.008534066999158667,0.12551786749011726,0.176532224892921,-0.22030895018274607
-0.047472955654245766,0.01117010721276371,0.09634217471008698,9.316317499999998,-0.9479761666666666,-3.5222217916666665,-0.0023385296658855067,0.021840284873160486,0.0765650560874087,-0.024149956574087843,0.1771509739585469,0.09237674279494507,-0.02634949025546537,-8.732188895968647e-06,0.0006873368531336012,0.07307618456682309,-0.18354793606229203,0.010692460909268746
0.004886921905584123,0.01117010721276371,0.09494591130849153,9.16921775,-0.5802267916666666,-3.546738416666667,-0.0023385296658855067,0.021840284873160486,0.0765650560874087,-0.024149956574087843,0.1771509739585469,0.09237674279494507,-0.02095374933772515,-0.013692774498272416,0.011851290775244959,0.03230833719814041,-0.204248445554428,-0.04211693827341221
0.04677482395344803,0.039095375244672985,0.07120943348136866,9.103840083333333,-0.17161637500000002,-3.4650163333333333,-0.0023385296658855067,0.021840284873160486,0.0765650560874087,-0.024149956574087843,0.1771509739585469,0.09237674279494507,-0.010160111799296363,0.009319562138779445,-0.0070021060537035626,-0.004357050259153921,-0.17174811146448027,-0.029833749042872195
0.06702064327658225,0.02024581932313422,0.08587019919812101,9.112012291666666,0.17161637500000002,-3.4078108749999996,-0.0023385296658855067,0.021840284873160486,0.0765650560874087,-0.024149956574087843,0.1771509739585469,0.09237674279494507,0.004990191716902922,0.008403444593842341,0.006809067844993242,0.09346196836371368,-0.290296681098807,0.19865544643788952
0.057246799465414,0.003490658503988659,0.07190756518216637,8.9240515,0.7518431666666666,-3.8082490833333327,-0.0023385296658855067,0.021840284873160486,0.0765650560874087,-0.024149956574087843,0.1771509739585469,0.09237674279494507,0.009681320192732936,-0.005828072251244671,0.006084413139916297,-0.04134306408691367,-0.0037877117546572647,-0.12027796084654979
0.03769911184307752,0.0153588974175501,0.060039326268604934,9.005773583333333,0.7600153749999999,-3.571255041666667,-0.0023385296658855067,0.021840284873160486,0.0765650560874087,-0.024149956574087843,0.1771509739585469,0.09237674279494507,0.009366309223204266,0.003541518254420131,-0.015244019714890181,-0.13948059492764278,-0.114109676920208,0.10877816252309645
0.01884955592153876,0.00767944870877505,0.09075712110370514,9.283628666666665,0.9888372083333332,-3.7919046666666665,-0.0023385296658855067,0.021840284873160486,0.0765650560874087,-0.024149956574087843,0.1771509739585469,0.09237674279494507,0.018914774833683454,-0.004634732353346659,0.0026243373326072478,0.15488224990261026,-0.11420734934446825,-0.0301668454377154
-0.01884955592153876,0.017453292519943295,0.08517206749732328,8.97308475,1.2176590416666666,-3.7346992083333332,-0.0023385296658855067,0.021840284873160486,0.0765650560874087,-0.024149956574087843,0.1771509739585469,0.09237674279494507,0.014791891327504763,-0.0049437893212920655,-0.0071336552348503215,-0.0901079800155972,0.1312493095968629,-0.07057180369494398
-0.04817108735504349,0.02652900463031381,0.09983283321407566,9.152873333333332,0.9561483749999999,-3.5957716666666664,-0.0023385296658855067,0.021840284873160486,0.0765650560874087,-0.024149956574087843,0.1771509739585469,0.09237674279494507,0.011112649623773455,0.006528398365245645,-0.0016753808468550153,0.08928520468320925,0.14333587355880806,0.023094986374844976
-0.07051130178057091,0.013962634015954637,0.10332349171806432,8.97308475,0.6701210833333332,-3.6448049166666663,-0.0023385296658855067,0.021840284873160486,0.0765650560874087,-0.024149956574087843,0.1771509739585469,0.09237674279494507,0.006831775241401917,-0.01278439899712341,0.030419802612895647,0.23467793922430105,-0.10084435809886687,-0.25618785001612604
