angular_velocity_x,angular_velocity_y,angular_velocity_z,linear_acceleration_x,linear_acceleration_y,linear_acceleration_z,fake_gyro_bias_x,fake_gyro_bias_y,fake_gyro_bias_z,fake_acc_bias_x,fake_acc_bias_y,fake_acc_bias_z,fake_gyro_noise_x,gyro_noise_y,gyro_noise_z,fake_acc_noise_x,fake_acc_noise_y,fake_acc_noise_z
0.0,0.001745329238474369,-0.001745329238474369,-1.3748468316040157,-9.556466320266752,-1.1562268002004437,-0.0009113950276862156,0.0016312735188530668,-0.0023750931502048585,0.11296992518139087,0.09576538492322102,-0.028362858352959243,0.0,0.0,0.0,0.0,0.0,0.0
0.0,0.005235987715423107,-0.001745329238474369,-1.3640149739215393,-9.507096872894191,-1.1661006954971502,-0.0009113950276862156,0.0016312735188530668,-0.0023750931502048585,0.11296992518139087,0.09576538492322102,-0.028362858352959243,0.0,0.0,0.0,0.0,0.0,0.0
0.0,0.005235987715423107,-0.001745329238474369,-1.354137310289291,-9.457708854912969,-1.175978299093395,-0.0009113950276862156,0.0016312735188530668,-0.0023750931502048585,0.11296992518139087,0.09576538492322102,-0.028362858352959243,0.0,0.0,0.0,0.0,0.0,0.0
0.0,0.005235987715423107,-0.003490658476948738,-1.385020381730722,-9.512486878510947,-1.1677400693715176,-0.0009113950276862156,0.0016312735188530668,-0.0023750931502048585,0.11296992518139087,0.09576538492322102,-0.028362858352959243,0.0,0.0,0.0,0.0,0.0,0.0
0.0,0.003490658476948738,-0.003490658476948738,-1.419575604185794,-9.576660751627985,-1.1578671658150503,-0.0009113950276862156,0.0016312735188530668,-0.0023750931502048585,0.11296992518139087,0.09576538492322102,-0.028362858352959243,0.0,0.0,0.0,0.0,0.0,0.0
0.0,0.0,-0.003490658476948738,-1.412769010728022,-9.594889385900764,-1.1571847200393677,-0.0009113950276862156,0.0016312735188530668,-0.0023750931502048585,0.11296992518139087,0.09576538492322102,-0.028362858352959243,0.0,0.0,0.0,0.0,0.0,0.0
0.0,0.0,-0.003490658476948738,-1.4028904671238218,-9.609707201307065,-1.1571847200393677,-0.0009113950276862156,0.0016312735188530668,-0.0023750931502048585,0.11296992518139087,0.09576538492322102,-0.028362858352959243,0.0,0.0,0.0,0.0,0.0,0.0
0.0,0.0,-0.001745329238474369,-1.3790080982519517,-9.540488305492936,-1.1478475642667068,-0.0009113950276862156,0.0016312735188530668,-0.0023750931502048585,0.11296992518139087,0.09576538492322102,-0.028362858352959243,0.0,0.0,0.0,0.0,0.0,0.0
0.0,0.0,-0.003490658476948738,-1.3543140292253364,-9.466406278521102,-1.1379699006344586,-0.0009113950276862156,0.0016312735188530668,-0.0023750931502048585,0.11296992518139087,0.09576538492322102,-0.028362858352959243,0.0,0.0,0.0,0.0,0.0,0.0
0.0,0.0,-0.001745329238474369,-1.3627929561520378,-9.472892333413952,-1.1423089749345157,-0.0009113950276862156,0.0016312735188530668,-0.0023750931502048585,0.11296992518139087,0.09576538492322102,-0.028362858352959243,0.0,0.0,0.0,0.0,0.0,0.0
0.0,0.0,-0.001745329238474369,-1.372670619784286,-9.482769937010199,-1.147247776732638,-0.0009113950276862156,0.0016312735188530668,-0.0023750931502048585,0.11296992518139087,0.09576538492322102,-0.028362858352959243,0.0,0.0,0.0,0.0,0.0,0.0
-0.001745329238474369,-0.001745329238474369,0.0,-1.3873518867635286,-9.555134735178727,-1.1425710067701487,-0.0009113950276862156,0.0016312735188530668,-0.0023750931502048585,0.11296992518139087,0.09576538492322102,-0.028362858352959243,0.0,0.0,0.0,0.0,0.0,0.0
-0.001745329238474369,-0.001745329238474369,0.0,-1.4021675922205112,-9.62921326246364,-1.1376324382844878,-0.0009113950276862156,0.0016312735188530668,-0.0023750931502048585,0.11296992518139087,0.09576538492322102,-0.028362858352959243,0.0,0.0,0.0,0.0,0.0,0.0
-0.001745329238474369,-0.001745329238474369,0.0,-1.3828400974333102,-9.581352801337792,-1.1375713348388672,-0.0009113950276862156,0.0016312735188530668,-0.0023750931502048585,0.11296992518139087,0.09576538492322102,-0.028362858352959243,0.0,0.0,0.0,0.0,0.0,0.0
-0.001745329238474369,0.0,-0.001745329238474369,-1.3631140303617468,-9.531980763491811,-1.1376023552270922,-0.0009113950276862156,0.0016312735188530668,-0.0023750931502048585,0.11296992518139087,0.09576538492322102,-0.028362858352959243,0.0,0.0,0.0,0.0,0.0,0.0
-0.001745329238474369,0.001745329238474369,-0.001745329238474369,-1.3581775185760765,-9.492489149265943,-1.1524117705692296,-0.0009113950276862156,0.0016312735188530668,-0.0023750931502048585,0.11296992518139087,0.09576538492322102,-0.028362858352959243,0.0,0.0,0.0,0.0,0.0,0.0
-0.001745329238474369,0.001745329238474369,-0.001745329238474369,-1.353633462002944,-9.454794830250963,-1.1669123923667124,-0.0009113950276862156,0.0016312735188530668,-0.0023750931502048585,0.11296992518139087,0.09576538492322102,-0.028362858352959243,0.0,0.0,0.0,0.0,0.0,0.0
-0.001745329238474369,0.0,0.0,-1.3733887292314368,-9.528876857222798,-1.1619735905685902,-0.0009113950276862156,0.0016312735188530668,-0.0023750931502048585,0.11296992518139087,0.09576538492322102,-0.028362858352959243,0.0,0.0,0.0,0.0,0.0,0.0
-0.003490658476948738,0.0,0.0,-1.3925442695617676,-9.600857468122973,-1.157037165283877,-0.0009113950276862156,0.0016312735188530668,-0.0023750931502048585,0.11296992518139087,0.09576538492322102,-0.028362858352959243,0.0,0.0,0.0,0.0,0.0,0.0
-0.005235987715423107,0.0,0.0,-1.3925442695617676,-9.605795793205669,-1.1520987801709706,-0.0009113950276862156,0.0016312735188530668,-0.0023750931502048585,0.11296992518139087,0.09576538492322102,-0.028362858352959243,0.0,0.0,0.0,0.0,0.0,0.0
-0.003490658476948738,0.0,0.0,-1.3912414158958912,-9.606825136915544,-1.1482465378249147,-0.0009113950276862156,0.0016312735188530668,-0.0023750931502048585,0.11296992518139087,0.09576538492322102,-0.028362858352959243,-0.0015751133300731886,-0.0012944005285471295,0.002119017968433064,-0.009388516172964162,-0.08830079810328371,0.005275308277369992
-0.001745329238474369,0.0,0.0,-1.3616113651007336,-9.522873496415087,-1.1679999250317832,-0.0009113950276862156,0.0016312735188530668,-0.0023750931502048585,0.11296992518139087,0.09576538492322102,-0.028362858352959243,0.0001702159083729155,-0.001294401087784618,0.0021190172324108978,0.020248651542128213,-0.0043529468277766934,-0.014455156056184979
0.0,0.0,-0.001745329238474369,-1.3351355179705096,-9.4466661114559,-1.1860321541812933,-0.0009113950276862156,0.0016312735188530668,-0.0023750931502048585,0.11296992518139087,0.09576538492322102,-0.028362858352959243,0.0019155444105749045,-0.0012943994529873843,0.0003736872571662085,0.04673161425449291,0.07185064956552484,-0.03246446671126735
0.0,0.0,-0.001745329238474369,-1.3598272369715225,-9.496049429397345,-1.176155490593004,-0.0009113950276862156,0.0016312735188530668,-0.0023750931502048585,0.11296992518139087,0.09576538492322102,-0.028362858352959243,0.0019688081566577613,-0.0042586112589301315,0.0002561453235174032,0.04637393410256149,0.06177669490511746,-0.015944063557531512
0.0,0.001745329238474369,-0.001745329238474369,-1.3838078356234829,-9.545080714359463,-1.1673480860540801,-0.0009113950276862156,0.0016312735188530668,-0.0023750931502048585,0.11296992518139087,0.09576538492322102,-0.028362858352959243,0.001975011953736805,-0.002858492518749723,0.00024245834209725694,0.025228020547122254,0.017319373817408775,-0.006330001495712092
-0.001745329238474369,0.003490658476948738,0.0,-1.3986242410178495,-9.589529930542561,-1.1722868878522024,-0.0009113950276862156,0.0016312735188530668,-0.0023750931502048585,0.11296992518139087,0.09576538492322102,-0.028362858352959243,0.00022967706636709595,-0.0011131647576756395,0.0019877834069253995,0.010412551645522634,-0.02713433785837479,-0.011231729199171061
-0.003490658476948738,0.005235987715423107,0.0,-1.410028315486352,-9.624167997961395,-1.1767979860305784,-0.0009113950276862156,0.0016312735188530668,-0.0023750931502048585,0.11296992518139087,0.09576538492322102,-0.028362858352959243,-0.0015156513283032381,0.0006321653265799436,0.001987779233274827,-0.0009905870560634148,-0.061776898730662444,-0.0157057709271035
-0.005235987715423107,0.005235987715423107,0.0,-1.3853331229255244,-9.555021458791078,-1.1767979860305786,-0.0009113950276862156,0.0016312735188530668,-0.0023750931502048585,0.11296992518139087,0.09576538492322102,-0.028362858352959243,-0.001991011556394876,0.0005285043289379149,0.002061417053157956,0.0070506432406806435,-0.06429507531464251,-0.0036602083879516494
-0.003490658476948738,0.005235987715423107,0.0,-1.3636215394718485,-9.490848276621884,-1.1777923238243735,-0.0009113950276862156,0.0016312735188530668,-0.0023750931502048585,0.11296992518139087,0.09576538492322102,-0.028362858352959243,-0.00011048821675574457,0.0005174682997652791,0.0020692640727759367,0.026987929757026137,-0.007758340254333351,-0.003308596982487471
-0.003490658476948738,0.003490658476948738,0.0,-1.3685570450711988,-9.47110625422448,-1.1876633350230743,-0.0009113950276862156,0.0016312735188530668,-0.0023750931502048585,0.11296992518139087,0.09576538492322102,-0.028362858352959243,-0.00011048889002090156,-0.0012278609421692956,0.002069258675223533,0.022050899263257432,0.011975444994751153,-0.013108766867889423
-0.003490658476948738,0.001745329238474369,-0.001745329238474369,-1.3746244279023643,-9.462642016663358,-1.195282302467251,-0.0009113950276862156,0.0016312735188530668,-0.0023750931502048585,0.11296992518139087,0.09576538492322102,-0.028362858352959243,-0.00011048280830152301,-0.0029731847827000387,0.0003239240398057429,0.01598199011211613,0.02043144026480194,-0.020656852592352205
-0.005235987715423107,0.001745329238474369,-0.003490658476948738,-1.3894408332967312,-9.541662845433315,-1.1854046988710065,-0.0009113950276862156,0.0016312735188530668,-0.0023750931502048585,0.11296992518139087,0.09576538492322102,-0.028362858352959243,-0.0010906634049370756,-0.0020583340643921186,-0.0007836141087770755,0.008434890898894213,0.005274440078806203,-0.016984899443461054
-0.005235987715423107,0.001745329238474369,-0.003490658476948738,-1.4004459764355812,-9.607341671287084,-1.1767979860305786,-0.0009113950276862156,0.0016312735188530668,-0.0023750931502048585,0.11296992518139087,0.09576538492322102,-0.028362858352959243,-0.0010167129378716095,-0.001969914896952778,-0.0007219706282004507,-0.001881753992588151,-0.05423914876883195,-0.00889841723973469
-0.005235987715423107,0.001745329238474369,-0.001745329238474369,-1.385635211088947,-9.582657062376029,-1.1767979860305786,-0.0009113950276862156,0.0016312735188530668,-0.0023750931502048585,0.11296992518139087,0.09576538492322102,-0.028362858352959243,-0.00101671749306976,-0.0019699221285448343,0.0010233586049370098,0.01291355275701719,-0.02956249028173131,-0.008810596654751352
-0.005235987715423107,0.003490658476948738,0.0,-1.371521990610931,-9.552324854606615,-1.1775024882284322,-0.0009113950276862156,0.0016312735188530668,-0.0023750931502048585,0.11296992518139087,0.09576538492322102,-0.028362858352959243,-0.00101672290885965,-0.00022460012036759584,0.0027686950768724084,0.02701130682875447,0.000761762535968582,-0.009427236610873161
-0.005235987715423107,0.001745329238474369,0.0,-1.3616457403328872,-9.488129617977517,-1.1824405833537475,-0.0009113950276862156,0.0016312735188530668,-0.0023750931502048585,0.11296992518139087,0.09576538492322102,-0.028362858352959243,-0.0009191255774456393,9.984869684511499e-05,0.002155978938753317,0.03600351299188268,0.021881345608616726,-0.002307774876458676
-0.005235987715423107,0.001745329238474369,0.0,-1.357181060459869,-9.443269392708752,-1.1873773055655934,-0.0009113950276862156,0.0016312735188530668,-0.0023750931502048585,0.11296992518139087,0.09576538492322102,-0.028362858352959243,-0.0009106204317336745,0.00028022080042889355,0.002102584872846062,0.040397728006696505,0.06297775289791305,-0.006119446072045399
-0.005235987715423107,0.0,0.0,-1.3818751294864842,-9.50253501428622,-1.1923161073637156,-0.0009113950276862156,0.0016312735188530668,-0.0023750931502048585,0.11296992518139087,0.09576538492322102,-0.028362858352959243,-0.0009106210274577437,-0.0014651084379297674,0.0021025774091288254,0.015710694439026358,0.0037012389415873328,-0.01097675046602094
-0.005235987715423107,-0.001745329238474369,-0.001745329238474369,-1.40403821683747,-9.560113321583591,-1.195567594881741,-0.0009113950276862156,0.0016312735188530668,-0.0023750931502048585,0.11296992518139087,0.09576538492322102,-0.028362858352959243,-0.0009106219866950311,-0.0032104302125106113,0.00035724070657115574,-0.0064453574265283115,-0.05388796143649782,-0.014146740675999211
-0.005235987715423107,-0.001745329238474369,-0.003490658476948738,-1.4139158204337146,-9.609501339564813,-1.1906287930836186,-0.0009113950276862156,0.0016312735188530668,-0.0023750931502048585,0.11296992518139087,0.09576538492322102,-0.028362858352959243,-0.0026654950546767474,-0.005805742430425797,-0.0011336491877439365,-0.012284962841802517,-0.07950169016971131,0.0018901590892952814
-0.003490658476948738,0.0,-0.001745329238474369,-1.4164876821999237,-9.632400873368402,-1.1884301144757377,-0.0009113950276862156,0.0016312735188530668,-0.0023750931502048585,0.11296992518139087,0.09576538492322102,-0.028362858352959243,-0.0010564636872080796,-0.004261981856656454,0.0006314493028635886,-0.014550412076776287,-0.10055885877533213,0.004993659222009293
-0.003490658476948738,0.003490658476948738,-0.001745329238474369,-1.3868576914350563,-9.538572569279657,-1.1983067780640266,-0.0009113950276862156,0.0016312735188530668,-0.0023750931502048585,0.11296992518139087,0.09576538492322102,-0.028362858352959243,-0.0010564636951614801,-0.0007713233798444479,0.0006314559599824087,0.015071859750291152,-0.006734992712274523,-0.004836294437137324
-0.003490658476948738,0.005235987715423107,0.0,-1.365091807225783,-9.464400771548073,-1.2091690519517084,-0.0009113950276862156,0.0016312735188530668,-0.0023750931502048585,0.11296992518139087,0.09576538492322102,-0.028362858352959243,-0.0010564694501443964,0.0009740025292639718,0.002376788528036275,0.03683002324457791,0.0674323659705786,-0.015651849572298746
-0.003490658476948738,0.005235987715423107,0.0,-1.3749694108220276,-9.469339573346195,-1.2239855173820788,-0.0009113950276862156,0.0016312735188530668,-0.0023750931502048585,0.11296992518139087,0.09576538492322102,-0.028362858352959243,-0.0025845077344948133,8.94064700414076e-05,0.0017845243369084137,0.041075599406084615,0.07486415907337655,-0.009020554046539174
-0.003490658476948738,0.003490658476948738,0.0,-1.3879993438892106,-9.491113447623091,-1.2335332126089518,-0.0009113950276862156,0.0016312735188530668,-0.0023750931502048585,0.11296992518139087,0.09576538492322102,-0.028362858352959243,-0.0026889583516184674,-0.0017163894337001583,0.0017440397728359397,0.02901538565109822,0.05393393574498219,-0.0170920347851654
-0.001745329238474369,0.003490658476948738,0.0,-1.4126934129158255,-9.575073078191169,-1.2236555489767034,-0.0009113950276862156,0.0016312735188530668,-0.0023750931502048585,0.11296992518139087,0.09576538492322102,-0.028362858352959243,-0.0009436291105896369,-0.0017163908136733164,0.001744047591631735,0.004325914932583819,-0.030027787175318975,-0.007203314170301482
-0.001745329238474369,0.003490658476948738,-0.001745329238474369,-1.4295271081259402,-9.626473653205087,-1.2160245180130005,-0.0009113950276862156,0.0016312735188530668,-0.0023750931502048585,0.11296992518139087,0.09576538492322102,-0.028362858352959243,-0.0009436212953791992,-0.0017163910531395946,-1.2816477964492272e-06,-0.012503183384545934,-0.08143045394833298,0.0004387706610326576
-0.001745329238474369,0.003490658476948738,-0.003490658476948738,-1.419650384507361,-9.567213671675352,-1.2160245180130005,-0.0009113950276862156,0.0016312735188530668,-0.0023750931502048585,0.11296992518139087,0.09576538492322102,-0.028362858352959243,-0.002148157972414112,-0.0009360567377059226,-0.0008252659400589628,-0.013248963422542968,-0.08027743123665991,-0.006383245416251942
-0.001745329238474369,0.003490658476948738,-0.001745329238474369,-1.4085803352783774,-9.511525250372486,-1.2160245180130005,-0.0009113950276862156,0.0016312735188530668,-0.0023750931502048585,0.11296992518139087,0.09576538492322102,-0.028362858352959243,-0.002220077296074351,-0.0008894665051385124,0.0009750686382697356,-0.0028286050683248745,-0.02805296459669338,-0.006812093694831221
0.0,0.003490658476948738,-0.001745329238474369,-1.3937639298840103,-9.467076034189386,-1.2160245180130005,-0.0009113950276862156,0.0016312735188530668,-0.0023750931502048585,0.11296992518139087,0.09576538492322102,-0.028362858352959243,-0.0004747480578074199,-0.0008894657500846126,0.0009750746480995333,0.011971381162693235,0.01640166613455113,-0.006834900591594144
0.0,0.001745329238474369,-0.001745329238474369,-1.3852653179584633,-9.451690923981948,-1.21476067731685,-0.0009113950276862156,0.0016312735188530668,-0.0023750931502048585,0.11296992518139087,0.09576538492322102,-0.028362858352959243,-0.0004747473015911403,-0.0026347949894131558,0.0009750776771572762,0.020453572514754118,0.031792191311991784,-0.005593869094535824
0.0,0.0,0.0,-1.3951382215149306,-9.52080124887722,-1.2098242255386162,-0.0009113950276862156,0.0016312735188530668,-0.0023750931502048585,0.11296992518139087,0.09576538492322102,-0.028362858352959243,-0.0011944789420388767,-6.58648366222923e-05,0.0006614095407649728,0.024772595212794214,0.032325630763403196,-0.013196642327449371
0.001745329238474369,-0.003490658476948738,0.0,-1.4063483025854564,-9.576619861281921,-1.2048854237404938,-0.0009113950276862156,0.0016312735188530668,-0.0023750931502048585,0.11296992518139087,0.09576538492322102,-0.028362858352959243,0.0005143561326154257,-0.003337816559207447,0.0005570336199125514,0.014328824692478351,-0.01996309441238741,-0.008949299368621032
0.001745329238474369,-0.003490658476948738,0.0,-1.421164768015827,-9.59637506847441,-1.1999466219423716,-0.0009113950276862156,0.0016312735188530668,-0.0023750931502048585,0.11296992518139087,0.09576538492322102,-0.028362858352959243,0.0005143561349642007,-0.003337816559192004,0.0005570336170122031,-0.0004384571778028524,-0.03971902066882562,-0.004069159793734542
0.001745329238474369,-0.001745329238474369,0.0,-1.4261646962697176,-9.58669016650904,-1.1964112520217896,-0.0009113950276862156,0.0016312735188530668,-0.0023750931502048585,0.11296992518139087,0.09576538492322102,-0.028362858352959243,0.0005143601074853246,-0.0015924873206776935,0.0005570289362049284,-0.005389220859264908,-0.03003483803225679,-0.0005924299817408491
0.0,-0.001745329238474369,0.0,-1.4064094290412248,-9.50273053594096,-1.1964112520217896,-0.0009113950276862156,0.0016312735188530668,-0.0023750931502048585,0.11296992518139087,0.09576538492322102,-0.028362858352959243,0.00018028427786622163,-0.003809474932894418,0.0019322173987023658,-0.005060033449344448,-0.006499602543885201,-0.00187019594471388
0.0,0.0,0.0,-1.3910717470994993,-9.454111444467324,-1.1978837744840583,-0.0009113950276862156,0.0016312735188530668,-0.0023750931502048585,0.11296992518139087,0.09576538492322102,-0.028362858352959243,0.0002393321278807015,-0.0021569049900811432,0.0019897540073854454,0.00947217542640049,0.03959180843455506,-0.0034096490396525216
0.0,0.0,-0.001745329238474369,-1.3861352953212656,-9.488666606914961,-1.2028202262622916,-0.0009113950276862156,0.0016312735188530668,-0.0023750931502048585,0.11296992518139087,0.09576538492322102,-0.028362858352959243,0.0002393332756606479,-0.0021569064586042345,0.00024442477008688497,0.014416345558206206,0.00503714799098554,-0.008360246909872518
0.0,0.0,-0.003490658476948738,-1.387362475707152,-9.53249118781164,-1.2046762719703983,-0.0009113950276862156,0.0016312735188530668,-0.0023750931502048585,0.11296992518139087,0.09576538492322102,-0.028362858352959243,0.00023933442498716138,-0.0021569079278622883,-0.0015009044686049462,0.013196887954238252,-0.03878693064612705,-0.010230446781822299
0.0,0.0,-0.003490658476948738,-1.4021788811015192,-9.596695611187231,-1.199737470172276,-0.0009113950276862156,0.0016312735188530668,-0.0023750931502048585,0.11296992518139087,0.09576538492322102,-0.028362858352959243,0.0003969112863742145,-0.0031844889450378324,-0.0009894200708616247,0.005579734341468933,-0.054889920079721904,0.006786815805204624
-0.001745329238474369,0.0,-0.003490658476948738,-1.408936128289529,-9.620608003562857,-1.2028540861283794,-0.0009113950276862156,0.0016312735188530668,-0.0023750931502048585,0.11296992518139087,0.09576538492322102,-0.028362858352959243,-0.0013431948647603688,-0.0032185499134427366,-0.0009724696136673875,-0.000946768542540377,-0.07720593812609003,0.0040645237306596305
0.0,0.0,-0.001745329238474369,-1.3990594647012395,-9.56134802203312,-1.2226074733352479,-0.0009113950276862156,0.0016312735188530668,-0.0023750931502048585,0.11296992518139087,0.09576538492322102,-0.028362858352959243,0.0004021309036779868,-0.003218548487246464,0.0007728630950145471,0.008921753544158957,-0.017943907863445515,-0.01569511285548557
0.0,0.003490658476948738,-0.001745329238474369,-1.3908625953294034,-9.513848480034468,-1.228911185841637,-0.0009113950276862156,0.0016312735188530668,-0.0023750931502048585,0.11296992518139087,0.09576538492322102,-0.028362858352959243,0.0004021302778481999,0.00027210998978934785,0.0007728608682595627,0.01711048066365482,0.0295576830522084,-0.022005075370926854
0.001745329238474369,0.003490658476948738,0.0,-1.3859237935312811,-9.489154471043857,-1.209155918613144,-0.0009113950276862156,0.0016312735188530668,-0.0023750931502048585,0.11296992518139087,0.09576538492322102,-0.028362858352959243,-0.0013148594244627148,-0.0003813754443229292,0.0028645617971784086,0.028731763823285506,0.03920203324028599,-0.030006724340762788
0.003490658476948738,0.003490658476948738,-0.001745329238474369,-1.3897463358822641,-9.496001958995592,-1.1929069023637384,-0.0009113950276862156,0.0016312735188530668,-0.0023750931502048585,0.11296992518139087,0.09576538492322102,-0.028362858352959243,0.0003450479923551392,-0.0003975069122977929,0.001127783378338353,0.025056045426613736,0.03199648529429291,-0.014529579929497558
0.003490658476948738,0.003490658476948738,-0.001745329238474369,-1.4094940230111095,-9.560181942164341,-1.1830330587993159,-0.0009113950276862156,0.0016312735188530668,-0.0023750931502048585,0.11296992518139087,0.09576538492322102,-0.028362858352959243,0.0003450479908356345,-0.0003975069094873074,0.0011277833798304237,0.00528985576638872,-0.0321699085719407,-0.004744880304569483
0.003490658476948738,0.0,-0.003490658476948738,-1.418320697713121,-9.593422973490206,-1.17861972144831,-0.0009113950276862156,0.0016312735188530668,-0.0023750931502048585,0.11296992518139087,0.09576538492322102,-0.028362858352959243,0.0003450551029185251,-0.003888174256542565,-0.0006175281193234808,-0.003555329787129811,-0.0653973450561109,-0.00042072956920397774
0.003490658476948738,0.0,-0.005235987715423107,-1.4084430941168764,-9.573667766297717,-1.1835585232464325,-0.0009113950276862156,0.0016312735188530668,-0.0023750931502048585,0.11296992518139087,0.09576538492322102,-0.028362858352959243,5.902070692369933e-05,-0.002242027593926352,-0.001342763858579182,-0.0068983938969616925,-0.09727049991929877,-0.016686538841638864
0.003490658476948738,0.0,-0.003490658476948738,-1.3966798345619273,-9.535018399199965,-1.184714263027702,-0.0009113950276862156,0.0016312735188530668,-0.0023750931502048585,0.11296992518139087,0.09576538492322102,-0.028362858352959243,5.439779704351397e-05,-0.0022154208775610053,0.0004190470113952297,0.004613430139559912,-0.05943738225282899,-0.01812562624297278
0.003490658476948738,0.0,-0.003490658476948738,-1.3818634291675602,-9.465875174026252,-1.1797754612295799,-0.0009113950276862156,0.0016312735188530668,-0.0023750931502048585,0.11296992518139087,0.09576538492322102,-0.028362858352959243,5.439779744712847e-05,-0.002215420877372904,0.00041904701256541776,0.019391371453131436,0.009724061870022936,-0.013288861532137214
0.003490658476948738,0.001745329238474369,-0.003490658476948738,-1.378816393379853,-9.445770283874321,-1.1728743928243808,-0.0009113950276862156,0.0016312735188530668,-0.0023750931502048585,0.11296992518139087,0.09576538492322102,-0.028362858352959243,5.439444201633921e-05,-0.00047009163936045033,0.0004190375059438847,0.022399939578884816,0.029847171445441665,-0.006489840179407572
0.003490658476948738,0.003490658476948738,-0.003490658476948738,-1.3936313887622869,-9.500091933609912,-1.1629977292360918,-0.0009113950276862156,0.0016312735188530668,-0.0023750931502048585,0.11296992518139087,0.09576538492322102,-0.028362858352959243,0.0011609902600825945,-0.0002579733478755113,-0.00046594613241148907,0.01804708099508934,0.05637675968312849,-0.012926042753240986
0.001745329238474369,0.003490658476948738,-0.003490658476948738,-1.4043813197412223,-9.556428490398085,-1.159215137223217,-0.0009113950276862156,0.0016312735188530668,-0.0023750931502048585,0.11296992518139087,0.09576538492322102,-0.028362858352959243,-0.0005755252335536362,-0.0002701863194066053,-0.00047299925541578405,0.007359132961776242,0.0006955964156913687,-0.009342830104253958
0.001745329238474369,0.003490658476948738,-0.001745329238474369,-1.4093201215393447,-9.615694111975554,-1.1641539390213393,-0.0009113950276862156,0.0016312735188530668,-0.0023750931502048585,0.11296992518139087,0.09576538492322102,-0.028362858352959243,-0.0005755298896133762,-0.0002701792522212392,0.0012723299830719968,0.002398808400339059,-0.05855848922679843,-0.014351664192516142
0.001745329238474369,0.001745329238474369,-0.001745329238474369,-1.4016482466106475,-9.618215213312167,-1.164889495246507,-0.0009113950276862156,0.0016312735188530668,-0.0023750931502048585,0.11296992518139087,0.09576538492322102,-0.028362858352959243,-0.0005755284835369274,-0.002015508493513454,0.0012723370465097326,0.010049158872608313,-0.06106805413245207,-0.015157259580758512
0.001745329238474369,0.0,-0.003490658476948738,-1.3769659877194793,-9.544168436638662,-1.1599530434682732,-0.0009113950276862156,0.0016312735188530668,-0.0023750931502048585,0.11296992518139087,0.09576538492322102,-0.028362858352959243,0.0003278442495522429,-0.0006366903814474117,0.0002489559682315548,0.006564819698512315,-0.04729979208244806,-0.020579623760532552
0.001745329238474369,0.0,-0.003490658476948738,-1.3631243705749512,-9.498303460505888,-1.1571847200393677,-0.0009113950276862156,0.0016312735188530668,-0.0023750931502048585,0.11296992518139087,0.09576538492322102,-0.028362858352959243,0.0003280162204491721,-0.000636095643471317,0.00024909340041216033,0.020371054458464447,-0.0014346953751933295,-0.01787295650098357
0.001745329238474369,0.0,-0.003490658476948738,-1.3631243705749512,-9.488426810340492,-1.1571847200393677,-0.0009113950276862156,0.0016312735188530668,-0.0023750931502048585,0.11296992518139087,0.09576538492322102,-0.028362858352959243,0.00032801621964536064,-0.0006360956441634489,0.00024909339963545676,0.02034102528754343,0.008453553313461789,-0.01793265778561037
0.0,0.0,-0.003490658476948738,-1.3743128152651205,-9.516595653284377,-1.1504716260239514,-0.0009113950276862156,0.0016312735188530668,-0.0023750931502048585,0.11296992518139087,0.09576538492322102,-0.028362858352959243,-0.0014080714065890596,-0.0006370149111578199,0.00022758905827906733,0.009281855561468773,-0.019241940090317544,-0.01142228583299019
0.0,0.0,-0.003490658476948738,-1.3990068242557323,-9.59067768025621,-1.135655160593581,-0.0009113950276862156,0.0016312735188530668,-0.0023750931502048585,0.11296992518139087,0.09576538492322102,-0.028362858352959243,-0.0002473058953459178,-0.0007521082874599843,-0.002473682509066261,0.00456494580572304,-0.03531458555869323,-0.014633716925887818
0.0,0.0,-0.001745329238474369,-1.4075411014857577,-9.618588728979898,-1.130072918876872,-0.0009113950276862156,0.0016312735188530668,-0.0023750931502048585,0.11296992518139087,0.09576538492322102,-0.028362858352959243,-0.00024730397334413146,-0.0007521057544119214,-0.0007283532704038625,-0.003934086848898576,-0.0632276225539383,-0.009082831681398215
0.0,0.0,0.0,-1.3976644513203624,-9.593897103566409,-1.1350112439595699,-0.0009113950276862156,0.0016312735188530668,-0.0023750931502048585,0.11296992518139087,0.09576538492322102,-0.028362858352959243,-0.00024730205112849567,-0.0007521032219329135,0.0010169759671352827,0.005977811170128083,-0.03853798581219159,-0.014052516292234207
0.0,0.0,0.0,-1.3830425818060483,-9.550216257809232,-1.1399467495589202,-0.0009113950276862156,0.0016312735188530668,-0.0023750931502048585,0.11296992518139087,0.09576538492322102,-0.028362858352959243,-0.0002471059133606722,-0.0007347206198241155,0.001022882528786704,0.020503120650904497,0.004330699205553152,-0.018992258867177904
0.0,0.0,0.0,-1.3632911011063262,-9.486024140614749,-1.1448846047277268,-0.0009113950276862156,0.0016312735188530668,-0.0023750931502048585,0.11296992518139087,0.09576538492322102,-0.028362858352959243,-0.00023503188152264,0.0003351376037257292,0.0013864157202193158,0.032178364245718225,0.01865666355616087,-0.022293135459756506
0.0,0.0,0.0,-1.3655424515520558,-9.478060027149237,-1.144933007142254,-0.0009113950276862156,0.0016312735188530668,-0.0023750931502048585,0.11296992518139087,0.09576538492322102,-0.028362858352959243,-0.00023503188126629585,0.0003351376039084993,0.0013864157203214548,0.029956184067118224,0.026620183422090982,-0.02237654317117395
0.0,0.0,-0.001745329238474369,-1.3902388706042732,-9.527452745170237,-1.1399937353401541,-0.0009113950276862156,0.0016312735188530668,-0.0023750931502048585,0.11296992518139087,0.09576538492322102,-0.028362858352959243,-0.00023503618056795877,0.0003351350973960043,-0.0003589135181844263,0.00528893788408542,-0.022773128427804025,-0.01747228013929126
0.0,-0.001745329238474369,-0.001745329238474369,-1.402350902557373,-9.561730546041945,-1.1350578858741573,-0.0009113950276862156,0.0016312735188530668,-0.0023750931502048585,0.11296992518139087,0.09576538492322102,-0.028362858352959243,-0.00024201485527184115,-0.0014446426259503136,-0.00038235170189642543,-0.007110543356075013,-0.057557247895287544,-0.012818186771166593
0.0,-0.001745329238474369,-0.003490658476948738,-1.402350902557373,-9.581481020314646,-1.1301202673059818,-0.0009113950276862156,0.0016312735188530668,-0.0023750931502048585,0.11296992518139087,0.09576538492322102,-0.028362858352959243,-0.0005248032607362584,-0.002840967768941715,-0.0030778137243866297,-0.019914159767575976,-0.09780723258222877,-0.017917848316509114
0.0,0.0,0.0,-1.389440605642696,-9.552172485583698,-1.1277647018432617,-0.0009113950276862156,0.0016312735188530668,-0.0023750931502048585,0.11296992518139087,0.09576538492322102,-0.028362858352959243,-0.0005247966279612187,-0.0010956322512835875,0.0004128416118937784,-0.006955315540004065,-0.06850214976373428,-0.01559875729249344
0.0,0.0,0.0,-1.364759501167959,-9.478129352172939,-1.1277647018432617,-0.0009113950276862156,0.0016312735188530668,-0.0023750931502048585,0.11296992518139087,0.09576538492322102,-0.028362858352959243,-0.0005247966282530457,-0.0010956322508942635,0.0004128416125546246,0.017774322321639904,0.0055375323503454605,-0.015635221370565625
0.0,0.001745329238474369,0.0,-1.355966555174838,-9.454399405650388,-1.133062511052733,-0.0009113950276862156,0.0016312735188530668,-0.0023750931502048585,0.11296992518139087,0.09576538492322102,-0.028362858352959243,-0.0004831022551633697,0.0005742934413799786,0.0004728674838052835,0.026751508743917414,0.03093648455423153,-0.020336707960420947
0.0,0.001745329238474369,-0.001745329238474369,-1.3609044703681408,-9.474150826325614,-1.142938221390346,-0.0009113950276862156,0.0016312735188530668,-0.0023750931502048585,0.11296992518139087,0.09576538492322102,-0.028362858352959243,0.0007675998281161898,-0.0016878131050756745,0.0005284118111893269,0.025931705519972783,0.06135551091184303,-0.011263988396445877
0.0,0.003490658476948738,-0.003490658476948738,-1.371274239549013,-9.521063041092821,-1.1500946238490566,-0.0009113950276862156,0.0016312735188530668,-0.0023750931502048585,0.11296992518139087,0.09576538492322102,-0.028362858352959243,0.0007676039886571881,5.751581924883485e-05,-0.0012169177406712967,0.015559402539747394,0.014443312767268993,-0.018417091603466884
0.0,0.003490658476948738,-0.003490658476948738,-1.386092054955313,-9.590212846322224,-1.1550339556928735,-0.0009113950276862156,0.0016312735188530668,-0.0023750931502048585,0.11296992518139087,0.09576538492322102,-0.028362858352959243,0.0007676039880447043,5.751581915654054e-05,-0.00121691774100846,0.0007390518717333437,-0.054706475828161884,-0.023353122322284686
-0.001745329238474369,0.003490658476948738,-0.001745329238474369,-1.3869701509842662,-9.598026706842338,-1.1571847200393677,-0.0009113950276862156,0.0016312735188530668,-0.0023750931502048585,0.11296992518139087,0.09576538492322102,-0.028362858352959243,-0.0008333408637958461,0.00023167611446345802,0.0004989975148313254,-0.0006133178222725866,-0.06411842484006751,-0.02484357297912526
-0.003490658476948738,0.0,-0.001745329238474369,-1.3770944406466534,-9.558523865491887,-1.1571847200393677,-0.0009113950276862156,0.0016312735188530668,-0.0023750931502048585,0.11296992518139087,0.09576538492322102,-0.028362858352959243,0.0008637781657642809,0.0008932675299661797,-0.00020218771576116095,-0.001986044076961568,-0.06271746788314507,-0.009173239471808474
-0.003490658476948738,0.0,-0.001745329238474369,-1.3643665563851672,-9.519031683901018,-1.1657491325217986,-0.0009113950276862156,0.0016312735188530668,-0.0023750931502048585,0.11296992518139087,0.09576538492322102,-0.028362858352959243,0.0008637781658803546,0.0008932675300848636,-0.0002021877152642643,0.010768903230636359,-0.02323804130301742,-0.0176643561598641
-0.003490658476948738,-0.001745329238474369,-0.001745329238474369,-1.3495486809371502,-9.479517509484216,-1.180566947928099,-0.0009113950276862156,0.0016312735188530668,-0.0023750931502048585,0.11296992518139087,0.09576538492322102,-0.028362858352959243,0.0008637763472956774,-0.0008520617087199329,-0.00020219524221556413,0.02561385504415769,0.016263371342665024,-0.032408841163612
-0.005235987715423107,-0.001745329238474369,-0.001745329238474369,-1.3639914442702732,-9.5014521251215,-1.1778272947418356,-0.0009113950276862156,0.0016312735188530668,-0.0023750931502048585,0.11296992518139087,0.09576538492322102,-0.028362858352959243,-0.0007707015481313088,-0.0009180344295649901,-0.00021560361549454582,0.01310244011674229,-0.0025391394962424557,-0.030242001134675962
-0.005235987715423107,-0.001745329238474369,-0.001745329238474369,-1.398563116893133,-9.56565654849709,-1.1630108893474687,-0.0009113950276862156,0.0016312735188530668,-0.0023750931502048585,0.11296992518139087,0.09576538492322102,-0.028362858352959243,0.0014114093243696002,-0.0022167469833445203,-0.00047966910203120673,0.01604379773889391,-0.0048498622869022345,-0.028068107769030716
-0.006981316953897476,0.0,-0.001745329238474369,-1.4121575355529785,-9.599886156109847,-1.1571847200393677,-0.0009113950276862156,0.0016312735188530668,-0.0023750931502048585,0.11296992518139087,0.09576538492322102,-0.028362858352959243,-0.00033391749002623783,-0.0004714153185888983,-0.0004796540327310891,0.0024794229608928325,-0.03909961104274657,-0.022107659509144343
-0.006981316953897476,0.0,-0.001745329238474369,-1.4121575355529785,-9.61470113135794,-1.1571847200393677,-0.0009113950276862156,0.0016312735188530668,-0.0023750931502048585,0.11296992518139087,0.09576538492322102,-0.028362858352959243,-0.00033391748997001246,-0.0004714153191869107,-0.0004796540322169361,0.002509481478213371,-0.053934739035115316,-0.021973317016224382
-0.005235987715423107,0.001745329238474369,-0.001745329238474369,-1.4029678699327075,-9.571311631177565,-1.1602479419127913,-0.0009113950276862156,0.0016312735188530668,-0.0023750931502048585,0.11296992518139087,0.09576538492322102,-0.028362858352959243,0.0013615510173543232,0.001257819924882888,-0.0005218371680544785,0.01052557296200299,-0.01442617838844638,-0.02399040937490513
-0.005235987715423107,0.003490658476948738,0.0,-1.3881606529246808,-9.492339807134755,-1.165183680915467,-0.0009113950276862156,0.0016312735188530668,-0.0023750931502048585,0.11296992518139087,0.09576538492322102,-0.028362858352959243,0.0005221783479145434,0.002732265546951992,0.0005132388529349935,0.0051022590202043855,-0.00046572843583681244,-0.013444824214817625
-0.005235987715423107,0.001745329238474369,0.0,-1.3796069400704167,-9.472809142709892,-1.1701220495307187,-0.0009113950276862156,0.0016312735188530668,-0.0023750931502048585,0.11296992518139087,0.09576538492322102,-0.028362858352959243,0.0005221742775038983,0.000986936308073272,0.000513228256909005,0.013703150600952478,0.019044268579976573,-0.01827006793276494
-0.005235987715423107,0.0,0.0,-1.3746676682683165,-9.487626958116193,-1.1750613213328187,-0.0009113950276862156,0.0016312735188530668,-0.0023750931502048585,0.11296992518139087,0.09576538492322102,-0.028362858352959243,0.0005221702073173336,-0.0007583929278888996,0.0005132176626113206,0.0186896057703285,0.004205782203878337,-0.02309620442615552
-0.005235987715423107,0.0,-0.001745329238474369,-1.3857276986559142,-9.537625385008225,-1.1863955073445969,-0.0009113950276862156,0.0016312735188530668,-0.0023750931502048585,0.11296992518139087,0.09576538492322102,-0.028362858352959243,0.00038207690355067386,-0.0008169352243227113,-0.0011599279019354877,0.008138311273017916,-0.04375731717623729,-0.032711796440382544
-0.005235987715423107,0.0,-0.001745329238474369,-1.40547911933114,-9.606755357371515,-1.2012090728510163,-0.0009113950276862156,0.0016312735188530668,-0.0023750931502048585,0.11296992518139087,0.09576538492322102,-0.028362858352959243,-0.0016619280583038834,-0.0016712530651425217,-0.0001067346003055367,-0.004832959129860615,-0.08290971625743976,-0.023989619049164825
-0.003490658476948738,0.001745329238474369,-0.001745329238474369,-1.4023532520142479,-9.590912679993027,-1.206217885017395,-0.0009113950276862156,0.0016312735188530668,-0.0023750931502048585,0.11296992518139087,0.09576538492322102,-0.028362858352959243,8.340279043365006e-05,7.40745632191103e-05,-0.00010672869147753075,-0.001689457398255475,-0.06707749571352178,-0.02893410928984289
-0.003490658476948738,0.003490658476948738,-0.001745329238474369,-1.3875389866355965,-9.531655618478421,-1.206217885017395,-0.0009113950276862156,0.0016312735188530668,-0.0023750931502048585,0.11296992518139087,0.09576538492322102,-0.028362858352959243,8.340440064431439e-05,0.0018194038014854202,-0.0001067228701865794,0.013142444047553048,-0.007830892490304157,-0.0288697813109097
-0.003490658476948738,0.001745329238474369,-0.001745329238474369,-1.382737636566162,-9.495760376951033,-1.206217885017395,-0.0009113950276862156,0.0016312735188530668,-0.0023750931502048585,0.11296992518139087,0.09576538492322102,-0.028362858352959243,0.0001429898604241744,8.327085026037841e-05,-9.628459490109302e-05,0.01917488005309698,0.02938749233863161,-0.030508063362605725
-0.003490658476948738,0.001745329238474369,-0.001745329238474369,-1.382737636566162,-9.471078118059866,-1.206217885017395,-0.0009113950276862156,0.0016312735188530668,-0.0023750931502048585,0.11296992518139087,0.09576538492322102,-0.028362858352959243,0.0009079654698909121,0.000201331123202673,3.77965723736596e-05,0.0347705403932662,0.07117999279493716,-0.052300178550108864
-0.003490658476948738,0.001745329238474369,0.0,-1.396363338847797,-9.514513436778788,-1.1925921827357602,-0.0009113950276862156,0.0016312735188530668,-0.0023750931502048585,0.11296992518139087,0.09576538492322102,-0.028362858352959243,0.000907965660927417,0.0002013234983020101,0.0017831258109517003,0.021159377977304068,0.027732570428791087,-0.03859060777059214
-0.005235987715423107,0.001745329238474369,-0.001745329238474369,-1.4161194792006806,-9.588598963102102,-1.1728360423828765,-0.0009113950276862156,0.0016312735188530668,-0.0023750931502048585,0.11296992518139087,0.09576538492322102,-0.028362858352959243,-0.0008373637686337888,0.00020133241735193164,3.779676285683443e-05,0.0014177788741746398,-0.04636506144799287,-0.01875059104737158
-0.005235987715423107,0.001745329238474369,-0.003490658476948738,-1.4254398902143017,-9.60704086874133,-1.1739427118657906,-0.0009113950276862156,0.0016312735188530668,-0.0023750931502048585,0.11296992518139087,0.09576538492322102,-0.028362858352959243,-0.0008020121207110839,0.0003497852255678696,-0.0017975533323921836,-0.009169005674408332,-0.06836045022811381,-0.017988374916101633
-0.005235987715423107,0.001745329238474369,-0.001745329238474369,-1.4303787520484277,-9.602102066943207,-1.183820315462035,-0.0009113950276862156,0.0016312735188530668,-0.0023750931502048585,0.11296992518139087,0.09576538492322102,-0.028362858352959243,-0.00039673963371697734,0.002051529680367961,-0.0010841995795319544,-0.028774895998204205,-0.10403213860246177,-0.007318731158942804
-0.005235987715423107,0.0,0.0,-1.4069476175616749,-9.54397103496801,-1.1972431590623944,-0.0009113950276862156,0.0016312735188530668,-0.0023750931502048585,0.11296992518139087,0.09576538492322102,-0.028362858352959243,-0.000396739144756823,0.00030619185423642236,0.0006611210718978884,-0.005296992173943536,-0.04591890898095896,-0.020654518906695056
-0.005235987715423107,0.0,0.0,-1.3723726549052575,-9.464942686134409,-1.2120609744686948,-0.0009113950276862156,0.0016312735188530668,-0.0023750931502048585,0.11296992518139087,0.09576538492322102,-0.028362858352959243,-0.0003967391459161278,0.00030619185517236905,0.00066112107062244,0.029324744616973503,0.033091634747126474,-0.03538527057792975
-0.003490658476948738,0.0,0.0,-1.3812030735788314,-9.47634545263843,-1.2196403025666671,-0.0009113950276862156,0.0016312735188530668,-0.0023750931502048585,0.11296992518139087,0.09576538492322102,-0.028362858352959243,0.0012053042725281196,0.00022747390599649425,0.0009357440758566964,0.021401760996025882,0.028425427684667274,-0.04219146103009522
-0.003490658476948738,0.0,-0.001745329238474369,-1.4058970825694432,-9.52079466882153,-1.2245791644007933,-0.0009113950276862156,0.0016312735188530668,-0.0023750931502048585,0.11296992518139087,0.09576538492322102,-0.028362858352959243,-0.0002703827811125581,-0.0005832034280439962,0.002018779705293995,0.005612114102388931,0.053522367583039195,-0.03997948077802573
-0.001745329238474369,0.0,-0.003490658476948738,-1.4121575355529785,-9.579984619758582,-1.2184587430131255,-0.0009113950276862156,0.0016312735188530668,-0.0023750931502048585,0.11296992518139087,0.09576538492322102,-0.028362858352959243,0.0014749441655818906,-0.0005831953439859893,0.00027344817695312455,-0.0006789538205907688,-0.0056689666873764874,-0.03380712628790787
-0.003490658476948738,0.001745329238474369,-0.005235987715423107,-1.4121575355529785,-9.64417071297904,-1.2085838994218838,-0.0009113950276862156,0.0016312735188530668,-0.0023750931502048585,0.11296992518139087,0.09576538492322102,-0.028362858352959243,-0.00027039040066371826,0.0011621359061734558,-0.0014718737237617522,-0.0007095569649839313,-0.06985644312131906,-0.02388036929084073
-0.003490658476948738,0.001745329238474369,-0.003490658476948738,-1.4008901301945482,-9.603212686342614,-1.2137295342451544,-0.0009113950276862156,0.0016312735188530668,-0.0023750931502048585,0.11296992518139087,0.09576538492322102,-0.028362858352959243,-0.0004459758330274836,0.0011324652942959848,5.129306420787191e-05,0.009367784754280047,-0.035800420640887454,-0.028883466049483015
-0.001745329238474369,0.003490658476948738,-0.003490658476948738,-1.386073724800181,-9.529130659370779,-1.2236071978774026,-0.0009113950276862156,0.0016312735188530668,-0.0023750931502048585,0.11296992518139087,0.09576538492322102,-0.028362858352959243,-0.00034286779671855453,0.0026003422941362833,-0.002026526960521955,0.013315093778147413,-0.02625965138215299,-0.03786628761170253
-0.001745329238474369,0.003490658476948738,-0.001745329238474369,-1.382737636566162,-9.497150648717197,-1.2258312702178955,-0.0009113950276862156,0.0016312735188530668,-0.0023750931502048585,0.11296992518139087,0.09576538492322102,-0.028362858352959243,-0.0003428661762863823,0.0026003412209557935,-0.000281197721351468,0.016675227704234206,0.005715485645750603,-0.040081361935822506
0.0,0.001745329238474369,0.0,-1.382737636566162,-9.477395441524708,-1.2258312702178955,-0.0009113950276862156,0.0016312735188530668,-0.0023750931502048585,0.11296992518139087,0.09576538492322102,-0.028362858352959243,0.0014024626904689688,0.0008550089174090521,0.0014641288235500412,0.016699282558657737,0.02546581729069229,-0.04007236054357463
0.0,0.0,0.0,-1.4061117414990312,-9.527763153898126,-1.2102485178107214,-0.0009113950276862156,0.0016312735188530668,-0.0023750931502048585,0.11296992518139087,0.09576538492322102,-0.028362858352959243,0.001285434836096985,-0.0006652982004753726,0.001521574310483614,-0.0029782861184954666,-0.02165041126934425,-0.027018565422217766
0.0,-0.001745329238474369,0.0,-1.435743192172766,-9.596903065392878,-1.1904941973505228,-0.0009113950276862156,0.0016312735188530668,-0.0023750931502048585,0.11296992518139087,0.09576538492322102,-0.028362858352959243,0.00028454640589598484,-0.0004860737718414014,0.002012902558204973,-0.0011766712518782706,-0.06294393964878418,-0.02896543421871907
0.0,-0.001745329238474369,0.0,-1.4415775537490845,-9.586729646843171,-1.186604619026184,-0.0009113950276862156,0.0016312735188530668,-0.0023750931502048585,0.11296992518139087,0.09576538492322102,-0.028362858352959243,0.00028454640914547157,-0.0004860737712366845,0.00201290255797104,-0.006994095420064936,-0.05277014590246379,-0.025102175770549906
0.0,0.0,-0.001745329238474369,-1.4415775537490845,-9.55709401603057,-1.186604619026184,-0.0009113950276862156,0.0016312735188530668,-0.0023750931502048585,0.11296992518139087,0.09576538492322102,-0.028362858352959243,0.00028454088066002137,0.0012592540967456892,0.0002675719491451433,-0.006977150139896679,-0.023134139771373977,-0.025128508298508146
0.0,0.0,-0.003490658476948738,-1.4214002339296594,-9.4992158461954,-1.2027464846927085,-0.0009113950276862156,0.0016312735188530668,-0.0023750931502048585,0.11296992518139087,0.09576538492322102,-0.028362858352959243,0.0003541754496411667,0.001157303421328903,-0.0012278588325174207,0.01076368652710185,0.033163889380446246,-0.039196198174609995
0.0,0.001745329238474369,-0.003490658476948738,-1.3967061649030441,-9.435011422819809,-1.2225017519212016,-0.0009113950276862156,0.0016312735188530668,-0.0023750931502048585,0.11296992518139087,0.09576538492322102,-0.028362858352959243,0.0009020785757966389,0.002100546724226202,0.0007382185390004697,0.01616615953033393,0.08493476595998067,-0.04244981582456635
0.0,0.001745329238474369,-0.003490658476948738,-1.404859313786587,-9.477555712881118,-1.221726205575789,-0.0009113950276862156,0.0016312735188530668,-0.0023750931502048585,0.11296992518139087,0.09576538492322102,-0.028362858352959243,0.0009020785754404988,0.0021005467245142004,0.0007382185387854213,0.007974091494400905,0.04239758778797722,-0.041682086000704735
0.0,0.0,-0.001745329238474369,-1.4196757191809537,-9.541760136256707,-1.2167873437416632,-0.0009113950276862156,0.0016312735188530668,-0.0023750931502048585,0.11296992518139087,0.09576538492322102,-0.028362858352959243,0.0009020869711231173,0.00035521750648423624,0.0024835477973417686,-0.006881236828748806,-0.021799723202291132,-0.0367510412386189
0.0,0.0,-0.003490658476948738,-1.4136121978640928,-9.58508463292107,-1.2034965619862636,-0.0009113950276862156,0.0016312735188530668,-0.0023750931502048585,0.11296992518139087,0.09576538492322102,-0.028362858352959243,0.0009569750211020387,0.00039998394499639084,0.0007594596076089709,-0.005703131229377608,-0.0657601373683025,-0.024672003396498922
0.0,0.0,-0.003490658476948738,-1.4037392943076257,-9.62457624714694,-1.1886872066515628,-0.0009113950276862156,0.0016312735188530668,-0.0023750931502048585,0.11296992518139087,0.09576538492322102,-0.028362858352959243,0.0013574809993008921,0.0007266103048469267,0.0009144377179288712,-0.031230538518538107,-0.10993659084072205,-0.018653204421917237
0.0,0.001745329238474369,-0.003490658476948738,-1.3768816160627813,-9.55796698194833,-1.1908494915085146,-0.0009113950276862156,0.0016312735188530668,-0.0023750931502048585,0.11296992518139087,0.09576538492322102,-0.028362858352959243,0.0013574765613045727,0.002471939542741506,0.0009144386939213938,-0.004414996619652352,-0.043321046240893425,-0.020813523612009333
0.0,0.0,-0.003490658476948738,-1.3472501653890463,-9.474011375133275,-1.1957880566152828,-0.0009113950276862156,0.0016312735188530668,-0.0023750931502048585,0.11296992518139087,0.09576538492322102,-0.028362858352959243,0.0013574809992657917,0.0007266103049572572,0.0009144377180482713,0.02517432570689792,0.04064083856387325,-0.02575012317013672
0.001745329238474369,0.0,-0.001745329238474369,-1.3521421908818072,-9.476363782793563,-1.2093580340527814,-0.0009113950276862156,0.0016312735188530668,-0.0023750931502048585,0.11296992518139087,0.09576538492322102,-0.028362858352959243,0.0032113752951924038,0.000801356573437324,0.0027975340105415793,0.023986865536162732,0.04541930219055143,-0.03991825700529465
0.0,0.0,-0.001745329238474369,-1.3620160944593802,-9.491174548140197,-1.2241688594125657,-0.0009113950276862156,0.0016312735188530668,-0.0023750931502048585,0.11296992518139087,0.09576538492322102,-0.028362858352959243,0.002200914576188886,0.0013073024641996776,0.0037301503943403275,0.039429702994494595,0.07884318874100141,-0.05878725074397933
0.0,0.0,-0.003490658476948738,-1.380664919024316,-9.55422887178225,-1.203905531350526,-0.0009113950276862156,0.0016312735188530668,-0.0023750931502048585,0.11296992518139087,0.09576538492322102,-0.028362858352959243,0.002200908150540756,0.0013073052828083515,0.001984821157101668,0.020714164668341813,0.01579695541186087,-0.03850384324245395
0.0,0.0,-0.005235987715423107,-1.400418246200894,-9.623365516900273,-1.1792138123495128,-0.0009113950276862156,0.0016312735188530668,-0.0023750931502048585,0.11296992518139087,0.09576538492322102,-0.028362858352959243,0.002200901726161576,0.0013073081023626467,0.00023949191796169154,0.0008941365120193539,-0.053331601515890024,-0.013792048106144612
0.0,0.0,-0.005235987715423107,-1.4068065402663756,-9.598940350184932,-1.1767979860305786,-0.0009113950276862156,0.0016312735188530668,-0.0023750931502048585,0.11296992518139087,0.09576538492322102,-0.028362858352959243,0.0021518273710773817,0.0008791640127573569,5.241421282324597e-05,-0.004353064554378458,-0.034630110065044024,-0.01164036484518291
0.0,0.0,-0.003490658476948738,-1.4117434620485871,-9.56438189770945,-1.1767979860305786,-0.0009113950276862156,0.0016312735188530668,-0.0023750931502048585,0.11296992518139087,0.09576538492322102,-0.028362858352959243,0.0018421899596160686,-0.001822286469963973,0.0006173410811475936,-0.0017322416761852155,-0.036229625540686435,-0.013413388959598434
0.0,0.001745329238474369,-0.001745329238474369,-1.3985825912682537,-9.525283531752777,-1.1858479488870617,-0.0009113950276862156,0.0016312735188530668,-0.0023750931502048585,0.11296992518139087,0.09576538492322102,-0.028362858352959243,0.0018421857530669604,-7.695926691843613e-05,0.002362672354743633,0.011386300051061152,0.002872705862152938,-0.02244017864743556
0.001745329238474369,0.005235987715423107,-0.001745329238474369,-1.3837668959479494,-9.485775010898635,-1.195725079100598,-0.0009113950276862156,0.0016312735188530668,-0.0023750931502048585,0.11296992518139087,0.09576538492322102,-0.028362858352959243,0.0035875074172952307,0.003413702996900839,0.0023626768403423658,0.026159670317858826,0.04238519154732134,-0.03229413790841575
0.0,0.003490658476948738,-0.003490658476948738,-1.3965190932015394,-9.533562326876918,-1.1872236142648716,-0.0009113950276862156,0.0016312735188530668,-0.0023750931502048585,0.11296992518139087,0.09576538492322102,-0.028362858352959243,0.001695143145345755,0.001968884767581466,0.0006771770719294192,0.015133542060407526,0.0012353884358611144,-0.02673054131913073
0.001745329238474369,0.001745329238474369,-0.005235987715423107,-1.411334088583973,-9.587883976612508,-1.1773469506765821,-0.0009113950276862156,0.0016312735188530668,-0.0023750931502048585,0.11296992518139087,0.09576538492322102,-0.028362858352959243,0.0025724351554872334,0.0019976097519555534,-0.0007149414878922607,0.01071489812590821,-0.013920948386515081,-0.03431550942831612
0.001745329238474369,0.0,-0.003490658476948738,-1.416821430923211,-9.600231072905993,-1.1674701952901134,-0.0009113950276862156,0.0016312735188530668,-0.0023750931502048585,0.11296992518139087,0.09576538492322102,-0.028362858352959243,0.0025724439657754702,0.0002522806973075106,0.0010303879353847076,0.005180824114596346,-0.026259555947139416,-0.024448040131142885
0.001745329238474369,0.0,-0.003490658476948738,-1.4217592860920176,-9.610106783243605,-1.1575944849525006,-0.0009113950276862156,0.0016312735188530668,-0.0023750931502048585,0.11296992518139087,0.09576538492322102,-0.028362858352959243,0.0025724439650321334,0.00025228069444878994,0.0010303879377494651,0.00019624163108936167,-0.0361267786128381,-0.014581614780476097
0.001745329238474369,0.0,-0.001745329238474369,-1.3935721682610915,-9.539536547438008,-1.1571847200393677,-0.0009113950276862156,0.0016312735188530668,-0.0023750931502048585,0.11296992518139087,0.09576538492322102,-0.028362858352959243,0.002748896237989684,4.0030753919693244e-05,0.002501181314097761,0.023383162995586546,0.026265110341048455,-0.01475887579323063
0.001745329238474369,0.001745329238474369,-0.001745329238474369,-1.3639393574723573,-9.46545452046617,-1.1571847200393677,-0.0009113950276862156,0.0016312735188530668,-0.0023750931502048585,0.11296992518139087,0.09576538492322102,-0.028362858352959243,0.003725504849549008,0.0006105949600231399,0.0009816732913728245,0.025558852280905812,0.05504124095929904,-0.017960662691321697
0.0,0.001745329238474369,-0.001745329238474369,-1.3679275810232925,-9.487433105464362,-1.1571847200393677,-0.0009113950276862156,0.0016312735188530668,-0.0023750931502048585,0.11296992518139087,0.09576538492322102,-0.028362858352959243,0.001980175611024099,0.0006105941907002152,0.0009816743773524198,0.02156353117312543,0.033061005791122595,-0.017936778513200795
0.0,0.001745329238474369,-0.001745329238474369,-1.3728656761486075,-9.512123581090938,-1.1571847200393677,-0.0009113950276862156,0.0016312735188530668,-0.0023750931502048585,0.11296992518139087,0.09576538492322102,-0.028362858352959243,0.0019801756109093416,0.0006105941908754633,0.0009816743772790488,0.016618341223374886,0.008368880552410581,-0.017912903420749998
0.0,0.0,-0.001745329238474369,-1.3778016610529205,-9.561156793024322,-1.1571847200393677,-0.0009113950276862156,0.0016312735188530668,-0.0023750931502048585,0.11296992518139087,0.09576538492322102,-0.028362858352959243,0.002040080145235689,-0.0009553283552211551,0.0009376211485184839,0.011491075337180082,-0.038091789671898246,-0.016977903640870675
0.0,0.0,0.0,-1.3827357565502512,-9.61049774799763,-1.1571847200393677,-0.0009113950276862156,0.0016312735188530668,-0.0023750931502048585,0.11296992518139087,0.09576538492322102,-0.028362858352959243,0.0023519860554145466,-2.1208202728979817e-05,0.0024535901848996115,0.005592426115016835,-0.0740316169235856,-0.01220920183020619
0.0,0.0,-0.001745329238474369,-1.377798364764062,-9.561123830135738,-1.1571847200393677,-0.0009113950276862156,0.0016312735188530668,-0.0023750931502048585,0.11296992518139087,0.09576538492322102,-0.028362858352959243,0.0023519825366026433,-2.120505447645246e-05,0.0007082609450450236,0.010532426928644352,-0.024661432756477343,-0.012180502117612877
0.0,0.0,-0.001745329238474369,-1.37271674250181,-9.512307378066973,-1.157327560173078,-0.0009113950276862156,0.0016312735188530668,-0.0023750931502048585,0.11296992518139087,0.09576538492322102,-0.028362858352959243,0.002351982536785091,-2.1205054564441454e-05,0.0007082609450286108,0.01561665907993066,0.024151284448156316,-0.01229463436672521
0.0,-0.001745329238474369,-0.001745329238474369,-1.3579045365124143,-9.502432614086539,-1.167202324153512,-0.0009113950276862156,0.0016312735188530668,-0.0023750931502048585,0.11296992518139087,0.09576538492322102,-0.028362858352959243,0.0023612020283211143,-0.0018565435979408067,0.0004975874270457378,0.031862980915966434,0.04193033865940659,-0.02129284154902232
0.0,-0.001745329238474369,0.0,-1.3442065929526652,-9.494923769870653,-1.1765197436757548,-0.0009113950276862156,0.0016312735188530668,-0.0023750931502048585,0.11296992518139087,0.09576538492322102,-0.028362858352959243,0.0024064895929925244,-0.0022986897496068033,0.0012080583395913714,0.05260025933403725,0.08828050254097398,-0.026416046828248142
0.0,-0.001745329238474369,0.0,-1.3689030120048824,-9.569012846902151,-1.1666412000715547,-0.0009113950276862156,0.0016312735188530668,-0.0023750931502048585,0.11296992518139087,0.09576538492322102,-0.028362858352959243,0.0024064895939798587,-0.0022986897462949404,0.001208058343948655,0.027935174498347457,0.014182807875074699,-0.01650532011877805
0.0,0.0,0.0,-1.3923356277940715,-9.638684596537377,-1.1573933618070638,-0.0009113950276862156,0.0016312735188530668,-0.0023750931502048585,0.11296992518139087,0.09576538492322102,-0.028362858352959243,0.0024064921447857334,-0.0005533605098564238,0.001208061609907326,0.004533875099129241,-0.05549755468689381,-0.0072253172386818765
0.0,0.001745329238474369,0.0,-1.387397772625265,-9.60905746552454,-1.1623312169758702,-0.0009113950276862156,0.0016312735188530668,-0.0023750931502048585,0.11296992518139087,0.09576538492322102,-0.028362858352959243,0.0023135479573091946,0.0006471645436233874,0.0014311985190675798,0.008345389156607515,-0.0392798427638647,-0.01113548221319618
0.0,0.003490658476948738,0.0,-1.3819029461237153,-9.577757900928727,-1.1669913530349731,-0.0009113950276862156,0.0016312735188530668,-0.0023750931502048585,0.11296992518139087,0.09576538492322102,-0.028362858352959243,0.0018827510358254348,-0.0001325945843129807,0.0024653880161760277,0.00849880605443691,-0.07009853889529231,-0.011149830075760066
0.0,0.005235987715423107,0.0,-1.3670928305705714,-9.518517678757247,-1.1669913530349731,-0.0009113950276862156,0.0016312735188530668,-0.0023750931502048585,0.11296992518139087,0.09576538492322102,-0.028362858352959243,0.0018827508362582355,0.0016127346530088807,0.0024653901417134574,0.023301125473933326,-0.010860719560057694,-0.011118968796364733
0.0,0.003490658476948738,-0.001745329238474369,-1.3543580119408418,-9.465497831932922,-1.1673381494866841,-0.0009113950276862156,0.0016312735188530668,-0.0023750931502048585,0.11296992518139087,0.09576538492322102,-0.028362858352959243,0.001882755388709163,-0.00013259246177350513,0.0007200587789650696,0.03602814484768891,0.042156723436126094,-0.011434892261236316
0.0,0.001745329238474369,-0.001745329238474369,-1.3691702277243718,-9.495122143462414,-1.1722755347415994,-0.0009113950276862156,0.0016312735188530668,-0.0023750931502048585,0.11296992518139087,0.09576538492322102,-0.028362858352959243,0.001810822619825171,-0.001593145040640787,0.0007260038008479356,0.028009396531918716,0.023004911784437806,-0.017694960385512687
0.0,0.0,-0.001745329238474369,-1.3843920505678171,-9.526392886200428,-1.1759707790297511,-0.0009113950276862156,0.0016312735188530668,-0.0023750931502048585,0.11296992518139087,0.09576538492322102,-0.028362858352959243,0.001494080810470926,-0.002084519510054544,0.0007521902829621863,0.042728417854821545,0.03785607775219988,-0.027321949874105758
0.0,0.0,-0.001745329238474369,-1.4041491377762174,-9.575785604221426,-1.166092235425551,-0.0009113950276862156,0.0016312735188530668,-0.0023750931502048585,0.11296992518139087,0.09576538492322102,-0.028362858352959243,0.0014940808104533351,-0.0020845195100048495,0.0007521902829596755,0.022967095241850446,-0.011537803418506352,-0.017427554233949247
0.0,0.001745329238474369,0.0,-1.4205091059704955,-9.614987951699353,-1.1566996932840983,-0.0009113950276862156,0.0016312735188530668,-0.0023750931502048585,0.11296992518139087,0.09576538492322102,-0.028362858352959243,0.0014940795523206761,-0.00033919154483657215,0.0024975207951335996,0.006602892028387799,-0.05074131395989751,-0.008019161571470736
0.0,0.003490658476948738,-0.001745329238474369,-1.4056990504276259,-9.560684414708831,-1.1517629480928677,-0.0009113950276862156,0.0016312735188530668,-0.0023750931502048585,0.11296992518139087,0.09576538492322102,-0.028362858352959243,0.0016716527318071657,0.0015383203190842234,0.0009026703153934742,0.020387038930119828,-0.007517046929097175,-0.004035064453804802
0.0,0.001745329238474369,0.0,-1.3925442695617676,-9.510233679441649,-1.1473779678344727,-0.0009113950276862156,0.0016312735188530668,-0.0023750931502048585,0.11296992518139087,0.09576538492322102,-0.028362858352959243,0.0024124430102490683,0.00034441527010736436,0.003275751837283291,0.029272180904528176,-0.003282502765911876,-0.0036708684476396553
-0.001745329238474369,0.001745329238474369,-0.001745329238474369,-1.3925442695617676,-9.490478472249158,-1.1473779678344727,-0.0009113950276862156,0.0016312735188530668,-0.0023750931502048585,0.11296992518139087,0.09576538492322102,-0.028362858352959243,0.0006671132680280698,0.0003444165828172181,0.0015304231024017175,0.029251156827088055,0.016471973124414282,-0.003635642450240491
-0.001745329238474369,0.0,-0.001745329238474369,-1.3944192259876846,-9.48072351192193,-1.1492529318577043,-0.0009113950276862156,0.0016312735188530668,-0.0023750931502048585,0.11296992518139087,0.09576538492322102,-0.028362858352959243,0.0006671152373475323,-0.001400912655803197,0.0015304198206516947,0.027355176345713057,0.026226201969567573,-0.005475380466694763
-0.001745329238474369,0.0,-0.003490658476948738,-1.4092313817524307,-9.539972134980914,-1.1640651476412343,-0.0009113950276862156,0.0016312735188530668,-0.0023750931502048585,0.11296992518139087,0.09576538492322102,-0.028362858352959243,0.0009281788706822099,-0.0017492909302752704,-0.0004436329381173731,0.011746532285504072,-0.02392512836354278,-0.017622344980334912
-0.001745329238474369,0.0,-0.001745329238474369,-1.4198873205083473,-9.590903282165527,-1.1754134206704208,-0.0009113950276862156,0.0016312735188530668,-0.0023750931502048585,0.11296992518139087,0.09576538492322102,-0.028362858352959243,0.0019624446865720395,-0.0031294907292366433,0.0003955506684757872,-0.0019981615388731176,-0.038814687806463154,-0.01850811831954094
-0.001745329238474369,0.001745329238474369,-0.001745329238474369,-1.405071625188043,-9.590903282165527,-1.1655362904568847,-0.0009113950276862156,0.0016312735188530668,-0.0023750931502048585,0.11296992518139087,0.09576538492322102,-0.028362858352959243,0.0019624451985897147,-0.001384161490658267,0.00039555678223192895,0.01281895862076444,-0.03882349262466548,-0.008557651348846163
-0.003490658476948738,0.003490658476948738,0.0,-1.3910189290709085,-9.580225898729514,-1.1587100605302267,-0.0009113950276862156,0.0016312735188530668,-0.0023750931502048585,0.11296992518139087,0.09576538492322102,-0.028362858352959243,0.00021711319812525647,0.00036116214907058714,0.002140888858150947,0.026873079296797237,-0.028154914521468302,-0.0016580847213678873
-0.003490658476948738,0.003490658476948738,0.0,-1.3811469780444252,-9.511122241544133,-1.1685820115567098,-0.0009113950276862156,0.0016312735188530668,-0.0023750931502048585,0.11296992518139087,0.09576538492322102,-0.028362858352959243,0.0002955415779211332,0.0002662317282764612,0.0018951528970259017,0.03482848431883071,0.035720376811387164,-0.0074534342344357764
-0.003490658476948738,0.003490658476948738,0.0,-1.3745919976279002,-9.461084893485097,-1.1784589800879222,-0.0009113950276862156,0.0016312735188530668,-0.0023750931502048585,0.11296992518139087,0.09576538492322102,-0.028362858352959243,0.0005912427756555598,-9.168251743566633e-05,0.0009686506546113674,0.034159107732250955,0.06606823806587317,-0.002161347424935832
-0.001745329238474369,0.003490658476948738,0.0,-1.3844696012241446,-9.505534109668197,-1.1883365836841666,-0.0009113950276862156,0.0016312735188530668,-0.0023750931502048585,0.11296992518139087,0.09576538492322102,-0.028362858352959243,0.0023365720153848838,-9.168558863423116e-05,0.0009686549177478177,0.024309799791620738,0.021604541473041524,-0.011955077191138822
-0.001745329238474369,0.003490658476948738,0.0,-1.3925442695617676,-9.548162432589711,-1.1946134476211578,-0.0009113950276862156,0.0016312735188530668,-0.0023750931502048585,0.11296992518139087,0.09576538492322102,-0.028362858352959243,0.0023365720141099292,-9.168559243255004e-05,0.0009686549202024768,0.016263413185075258,-0.0210382557333928,-0.018148107184329625
-0.003490658476948738,0.001745329238474369,0.0,-1.3925442695617676,-9.58272576256694,-1.1847382104848068,-0.0009113950276862156,0.0016312735188530668,-0.0023750931502048585,0.11296992518139087,0.09576538492322102,-0.028362858352959243,0.0012052819817847155,-0.001177132864963883,0.0009168605561392087,0.01434141620686084,-0.0599936122376637,-0.007747730953649568
-0.005235987715423107,0.0,0.0,-1.389639088031024,-9.596959034346602,-1.178734773717741,-0.0009113950276862156,0.0016312735188530668,-0.0023750931502048585,0.11296992518139087,0.09576538492322102,-0.028362858352959243,0.0016662656676559723,-0.0005514544999947904,0.000730802826228663,0.010270379424254775,-0.08997224962631035,-6.283566110573712e-05
-0.005235987715423107,0.0,0.0,-1.3748240725065282,-9.527822295232287,-1.1886114507340715,-0.0009113950276862156,0.0016312735188530668,-0.0023750931502048585,0.11296992518139087,0.09576538492322102,-0.028362858352959243,0.0016662656676659832,-0.0005514544975150032,0.0007308028279247464,0.025128052684914946,-0.020859002028468222,-0.00979951881078695
-0.005235987715423107,0.0,0.0,-1.3662348568996538,-9.475297343768064,-1.1953744232468888,-0.0009113950276862156,0.0016312735188530668,-0.0023750931502048585,0.11296992518139087,0.09576538492322102,-0.028362858352959243,0.0016662656674495126,-0.000551454501024862,0.0007308028255788309,0.03375991412757867,0.0316424623526953,-0.016422537903829176
-0.005235987715423107,0.0,0.0,-1.381048442270154,-9.485173067348397,-1.1904365614567218,-0.0009113950276862156,0.0016312735188530668,-0.0023750931502048585,0.11296992518139087,0.09576538492322102,-0.028362858352959243,0.0013905847977176197,-0.0009197952500973772,0.0007539700705921529,0.027337741642382,0.036825035472696596,-0.010358947507511302
-0.005235987715423107,0.0,0.0,-1.3969660804221993,-9.510524141899893,-1.1877100683818353,-0.0009113950276862156,0.0016312735188530668,-0.0023750931502048585,0.11296992518139087,0.09576538492322102,-0.028362858352959243,0.0004406907811989045,-0.0021889561380086806,0.0008337873561303878,0.04022804479373387,0.06341726569370491,-0.004100378217716798
-0.005235987715423107,0.0,0.0,-1.4167119475425705,-9.589507370351631,-1.192646520160069,-0.0009113950276862156,0.0016312735188530668,-0.0023750931502048585,0.11296992518139087,0.09576538492322102,-0.028362858352959243,0.0004406907798564778,-0.0021889561397591744,0.0008337873526010253,0.02051788515848492,-0.015585731829815451,-0.008919278558372075
-0.003490658476948738,0.001745329238474369,0.0,-1.4294246466360359,-9.638011780854697,-1.1964112520217896,-0.0009113950276862156,0.0016312735188530668,-0.0023750931502048585,0.11296992518139087,0.09576538492322102,-0.028362858352959243,0.0021860233874553226,-0.0004436302694555576,0.0008337989879172128,0.007840903508799742,-0.06410991859254851,-0.012566425592107536
-0.003490658476948738,0.003490658476948738,0.0,-1.4195498030447942,-9.588637862992806,-1.1964112520217896,-0.0009113950276862156,0.0016312735188530668,-0.0023750931502048585,0.11296992518139087,0.09576538492322102,-0.028362858352959243,0.0016389736326200618,0.001391563801803396,0.001187915572334472,0.012178360103369727,-0.03266914802459572,-0.008193903578183162
-0.001745329238474369,0.003490658476948738,0.0,-1.4071905335161916,-9.539259245091138,-1.198894753040183,-0.0009113950276862156,0.0016312735188530668,-0.0023750931502048585,0.11296992518139087,0.09576538492322102,-0.028362858352959243,0.0015758884893028878,0.0016886298427484846,0.0023584985646989054,0.00614156971858441,-0.042524380136420535,0.0034914817093467205
-0.001745329238474369,0.001745329238474369,0.0,-1.3874466064191682,-9.489899427348579,-1.2087667165886946,-0.0009113950276862156,0.0016312735188530668,-0.0023750931502048585,0.11296992518139087,0.09576538492322102,-0.028362858352959243,0.0015758884528159034,-5.669940050371417e-05,0.002358493299870457,0.0258853935870424,0.006828290744241753,-0.0063219548152042525
-0.001745329238474369,0.0,-0.003490658476948738,-1.3781697322078716,-9.468016923979668,-1.2173342160928067,-0.0009113950276862156,0.0016312735188530668,-0.0023750931502048585,0.11296992518139087,0.09576538492322102,-0.028362858352959243,0.001575889162991461,-0.0018020181028491277,-0.001132170444254766,0.03516216447561449,0.028703642133667412,-0.014830888324261618
-0.001745329238474369,0.0,-0.003490658476948738,-1.3979230862405325,-9.522338647569486,-1.2222726146313438,-0.0009113950276862156,0.0016312735188530668,-0.0023750931502048585,0.11296992518139087,0.09576538492322102,-0.028362858352959243,0.001518871378883881,-0.001478557812354066,-0.0012264601400841114,0.014398185452585106,-0.014910889652859484,-0.019332721001222707
-0.001745329238474369,-0.001745329238474369,-0.003490658476948738,-1.4094009037574637,-9.565618330871983,-1.2244529375653501,-0.0009113950276862156,0.0016312735188530668,-0.0023750931502048585,0.11296992518139087,0.09576538492322102,-0.028362858352959243,0.001337607104801871,-0.002195583607164192,-0.001526215263111986,-0.000289024600880909,-0.024136291278555207,-0.02025511079519568
-0.001745329238474369,0.0,-0.001745329238474369,-1.3995232865529357,-9.580434756678775,-1.2195140689269997,-0.0009113950276862156,0.0016312735188530668,-0.0023750931502048585,0.11296992518139087,0.09576538492322102,-0.028362858352959243,0.0013376105841048347,-0.0004502591154276889,0.0002191187220518573,0.009601983813636956,-0.03896067858248881,-0.015268324606440327
-0.001745329238474369,0.0,-0.001745329238474369,-1.3867481628939484,-9.573515015004952,-1.214575495749619,-0.0009113950276862156,0.0016312735188530668,-0.0023750931502048585,0.11296992518139087,0.09576538492322102,-0.028362858352959243,0.001337610583963773,-0.0004502591155058113,0.00021911872204103883,0.022390498816178387,-0.03204889868022068,-0.010281833961571408
0.0,0.0,0.0,-1.3669966557087043,-9.51426067352295,-1.2096376339594523,-0.0009113950276862156,0.0016312735188530668,-0.0023750931502048585,0.11296992518139087,0.09576538492322102,-0.028362858352959243,0.002890874264380159,-0.0005540886900085649,0.001850389777254562,0.04436961554361895,0.025317147097275998,-0.01015918718096332
0.0,0.0,0.0,-1.3609002546189553,-9.482322827595135,-1.204701361454583,-0.0009113950276862156,0.0016312735188530668,-0.0023750931502048585,0.11296992518139087,0.09576538492322102,-0.028362858352959243,0.0023041387930433513,-0.0008712515185618453,0.0015019697279036667,0.05724583791492465,0.051503157919375576,-0.020035341108142722
0.0,0.0,0.0,-1.3855943576663619,-9.511955679208718,-1.1997625528523188,-0.0009113950276862156,0.0016312735188530668,-0.0023750931502048585,0.11296992518139087,0.09576538492322102,-0.028362858352959243,0.002304138793140332,-0.0008712515180974343,0.001501969728324353,0.03257499622153689,0.021862923801865632,-0.015065853790168077
0.0,0.0,-0.001745329238474369,-1.405524369415093,-9.549517551909355,-1.1948245185929296,-0.0009113950276862156,0.0016312735188530668,-0.0023750931502048585,0.11296992518139087,0.09576538492322102,-0.028362858352959243,0.002304137131714677,-0.0008712484745729085,-0.0002433595108809441,0.012668243654971992,-0.01570633085788137,-0.010097143805205369
-0.001745329238474369,0.0,-0.001745329238474369,-1.4154010330033822,-9.603839201644945,-1.1898861867987849,-0.0009113950276862156,0.0016312735188530668,-0.0023750931502048585,0.11296992518139087,0.09576538492322102,-0.028362858352959243,0.0006772432491291813,-0.0018875528706929962,-9.004661735252392e-05,0.0005597878418459875,-0.07627131843864705,-0.00142372719629512
-0.001745329238474369,0.001745329238474369,-0.001745329238474369,-1.4136909089990366,-9.615116668494913,-1.1915685747559124,-0.0009113950276862156,0.0016312735188530668,-0.0023750931502048585,0.11296992518139087,0.09576538492322102,-0.028362858352959243,0.0010251753885295932,-0.003127886553407475,0.0003603431684616083,-0.0043383363646946485,-0.10587568312420464,0.00781384479848294
-0.001745329238474369,0.003490658476948738,0.0,-1.3889980496730296,-9.541038090516892,-1.2063842903515165,-0.0009113950276862156,0.0016312735188530668,-0.0023750931502048585,0.11296992518139087,0.09576538492322102,-0.028362858352959243,0.001025168895214965,-0.0013825613761023227,0.0021056764702919325,0.020351495348908104,-0.031803585755760096,-0.006944780680330311
-0.001745329238474369,0.005235987715423107,-0.001745329238474369,-1.3729310035705566,-9.487668267592882,-1.2177474338286824,-0.0009113950276862156,0.0016312735188530668,-0.0023750931502048585,0.11296992518139087,0.09576538492322102,-0.028362858352959243,0.0010251765657557825,0.0003627719230922871,0.00036035129792686283,0.03641551481223576,0.02155975937929665,-0.01825086126567118
0.0,0.005235987715423107,-0.001745329238474369,-1.3729310035705566,-9.472846200656903,-1.2226881828662859,-0.0009113950276862156,0.0016312735188530668,-0.0023750931502048585,0.11296992518139087,0.09576538492322102,-0.028362858352959243,0.0024222264402169466,0.0007729531981908665,0.000892481812213711,0.038544040389261604,0.045888118811911495,-0.020446744310528345
0.0,0.005235987715423107,-0.003490658476948738,-1.3783130191196906,-9.488533125785281,-1.2258312702178955,-0.0009113950276862156,0.0016312735188530668,-0.0023750931502048585,0.11296992518139087,0.09576538492322102,-0.028362858352959243,0.0014374213178296909,0.0019327912199371907,0.0006517962175714894,0.039174540837126445,0.05709628364843132,-0.015942544636654954
0.0,0.003490658476948738,-0.003490658476948738,-1.3931251944782579,-9.557656610791929,-1.2258312702178955,-0.0009113950276862156,0.0016312735188530668,-0.0023750931502048585,0.11296992518139087,0.09576538492322102,-0.028362858352959243,0.0014374251813346222,0.0001874619806682748,0.00065179506705447,0.024314740169426686,-0.012021983557511285,-0.015923433498579245
0.0,0.001745329238474369,-0.003490658476948738,-1.400490156809489,-9.595127677917482,-1.223970501850813,-0.0009113950276862156,0.0016312735188530668,-0.0023750931502048585,0.11296992518139087,0.09576538492322102,-0.028362858352959243,0.0014374290434801295,-0.0015578672569605016,0.000651793918142894,0.016902166026733542,-0.049487834608343884,-0.014043559643623265
0.0,0.0,-0.003490658476948738,-1.395552295019322,-9.580314092546981,-1.2190325800360693,-0.0009113950276862156,0.0016312735188530668,-0.0023750931502048585,0.11296992518139087,0.09576538492322102,-0.028362858352959243,0.0006061909255970308,-0.002637797094489492,0.0004955178418234764,0.016899930050017622,-0.051061619355167745,-0.016412087568763816
0.0,0.0,-0.003490658476948738,-1.3848234206190915,-9.546197333367191,-1.210233898903664,-0.0009113950276862156,0.0016312735188530668,-0.0023750931502048585,0.11296992518139087,0.09576538492322102,-0.028362858352959243,-0.0016596835156913136,-0.000823998569958513,6.952657451940706e-05,0.014250904917568587,-0.061622208385240046,-0.027585565350622978
0.001745329238474369,0.0,-0.003490658476948738,-1.3650681261739488,-9.481992821537759,-1.1954174730968719,-0.0009113950276862156,0.0016312735188530668,-0.0023750931502048585,0.11296992518139087,0.09576538492322102,-0.028362858352959243,8.564572274975307e-05,-0.0008239959795982672,6.952480996980056e-05,0.03398009470330126,0.0025942253275269157,-0.01283389545710863
0.003490658476948738,0.0,-0.003490658476948738,-1.3613208704248423,-9.459810242697458,-1.1886054259594356,-0.0009113950276862156,0.0016312735188530668,-0.0023750931502048585,0.11296992518139087,0.09576538492322102,-0.028362858352959243,0.0018309749608224023,-0.0008239933902522311,6.95230450079045e-05,0.0377012456266661,0.024788725556633313,-0.006086604256943735
0.003490658476948738,0.0,-0.001745329238474369,-1.3810648575235893,-9.499298096891504,-1.1935414077336914,-0.0009113950276862156,0.0016312735188530668,-0.0023750931502048585,0.11296992518139087,0.09576538492322102,-0.028362858352959243,0.0019399222303890429,-0.0008820971766267931,0.001798066637840438,0.024199178700503622,0.007952906978390736,-0.014681216765893623
0.003490658476948738,0.0,-0.003490658476948738,-1.3966810976314348,-9.549146233649125,-1.1943428379869558,-0.0009113950276862156,0.0016312735188530668,-0.0023750931502048585,0.11296992518139087,0.09576538492322102,-0.028362858352959243,0.002226067585197978,-0.0010347266015925077,8.649930806594138e-06,0.025019809359334767,0.017580802046837592,-0.02498453100309813
0.001745329238474369,0.0,-0.003490658476948738,-1.4065577746477653,-9.613344634255274,-1.1894044994787907,-0.0009113950276862156,0.0016312735188530668,-0.0023750931502048585,0.11296992518139087,0.09576538492322102,-0.028362858352959243,0.00048073834644995887,-0.0010347290589593691,8.651234215996745e-06,0.015117630438969545,-0.04660705921599572,-0.020101145551342816
0.001745329238474369,0.0,-0.003490658476948738,-1.403609103205791,-9.619823566924003,-1.1823304028525903,-0.0009113950276862156,0.0016312735188530668,-0.0023750931502048585,0.11296992518139087,0.09576538492322102,-0.028362858352959243,0.0004807383469846827,-0.0010347290586760532,8.651235020103536e-06,0.0180408047203513,-0.05307545491913693,-0.013081991538612002
0.001745329238474369,0.0,-0.001745329238474369,-1.3838576560451235,-9.550693501861668,-1.1724546792722566,-0.0009113950276862156,0.0016312735188530668,-0.0023750931502048585,0.11296992518139087,0.09576538492322102,-0.028362858352959243,0.0009772093901503536,-0.0009324688787789558,0.0018051150613955698,0.034632416937572214,0.0005847490925503004,-0.003706820363555567
0.001745329238474369,0.0,-0.001745329238474369,-1.3729310035705566,-9.503625846441578,-1.1714035389145256,-0.0009113950276862156,0.0016312735188530668,-0.0023750931502048585,0.11296992518139087,0.09576538492322102,-0.028362858352959243,0.002234576328457245,-0.0006734930354917122,0.0019346176932161002,0.03759472224987078,0.00845577197295001,-0.0038272846321602484
0.0,0.0,-0.003490658476948738,-1.3729310035705566,-9.483884745495187,-1.1812740893877216,-0.0009113950276862156,0.0016312735188530668,-0.0023750931502048585,0.11296992518139087,0.09576538492322102,-0.028362858352959243,0.0004892449979511153,-0.0006734968085247374,0.00018929054708878836,0.037566066268152766,0.02820305399355162,-0.013711642945839517
0.0,0.0,-0.003490658476948738,-1.382022623441848,-9.507317260735604,-1.186604619026184,-0.0009113950276862156,0.0016312735188530668,-0.0023750931502048585,0.11296992518139087,0.09576538492322102,-0.028362858352959243,0.0004892449981044282,-0.0006734968082741572,0.00018929054712508037,0.02844577671739922,0.004776722662146716,-0.019055986937095218
0.0,0.0,-0.003490658476948738,-1.4017797382272996,-9.581406441181048,-1.186604619026184,-0.0009113950276862156,0.0016312735188530668,-0.0023750931502048585,0.11296992518139087,0.09576538492322102,-0.028362858352959243,0.0006166495915554544,-0.0005824151837235629,-0.0004592015015552081,0.009218191773902628,-0.06509038286788338,-0.01935372557563997
0.0,0.0,-0.001745329238474369,-1.407470655886926,-9.606262542154187,-1.1842611791931579,-0.0009113950276862156,0.0016312735188530668,-0.0023750931502048585,0.11296992518139087,0.09576538492322102,-0.028362858352959243,0.0009280603507153686,-0.00035978816851467253,-0.00029895741744754623,0.004878838475374069,-0.07963839384307948,-0.01771537846562077
0.0,-0.001745329238474369,0.0,-1.3975986923384147,-9.576646651508652,-1.179325197418902,-0.0009113950276862156,0.0016312735188530668,-0.0023750931502048585,0.11296992518139087,0.09576538492322102,-0.028362858352959243,0.0009280610994976242,-0.002105117443756306,0.0014463717841014059,0.01477680143807248,-0.0500260976951055,-0.01278385125642055
0.0,0.0,0.0,-1.382901638650563,-9.532555578356591,-1.179208636432422,-0.0009113950276862156,0.0016312735188530668,-0.0023750931502048585,0.11296992518139087,0.09576538492322102,-0.028362858352959243,0.0009280631298013702,-0.00035978820546367514,0.0014463718202620307,0.02949986442020956,-0.005938620469990779,-0.012671746614627055
0.0,0.0,0.0,-1.3631482514436941,-9.473295596826857,-1.1841469682265666,-0.0009113950276862156,0.0016312735188530668,-0.0023750931502048585,0.11296992518139087,0.09576538492322102,-0.028362858352959243,0.0007048516898177129,-0.0011319101611857155,0.0019875513632004634,0.05503046744810181,0.05311541936578696,-0.021663272220332177
0.0,0.001745329238474369,-0.001745329238474369,-1.368196094433181,-9.466121456110589,-1.181645137053041,-0.0009113950276862156,0.0016312735188530668,-0.0023750931502048585,0.11296992518139087,0.09576538492322102,-0.028362858352959243,0.0001784360579573904,-0.001207535798256405,0.0015185261449021804,0.06355687150541059,0.05981143603520999,-0.028716794310519714
0.0,0.001745329238474369,-0.001745329238474369,-1.3978120450804394,-9.510545292078891,-1.1717731735045294,-0.0009113950276862156,0.0016312735188530668,-0.0023750931502048585,0.11296992518139087,0.09576538492322102,-0.028362858352959243,0.0001784360571219537,-0.0012075357973212952,0.0015185261456666555,0.03391579038479635,0.01539310088138308,-0.0188573760245817
0.0,0.001745329238474369,-0.001745329238474369,-1.4172524463626959,-9.554990443485728,-1.164443913113436,-0.0009113950276862156,0.0016312735188530668,-0.0023750931502048585,0.11296992518139087,0.09576538492322102,-0.028362858352959243,0.00017843605748066747,-0.0012075357975407492,0.0015185261456073156,0.014450244299575818,-0.029046546646964266,-0.011540668157433745
0.0,0.003490658476948738,-0.003490658476948738,-1.4271301236033103,-9.599439720906105,-1.159505104511172,-0.0009113950276862156,0.0016312735188530668,-0.0023750931502048585,0.11296992518139087,0.09576538492322102,-0.028362858352959243,-0.000708419258362492,0.0004464103315955409,-0.00013043091796479146,-0.00015735908042731206,-0.07863855794357187,-0.006381216588762773
0.001745329238474369,0.005235987715423107,-0.003490658476948738,-1.4186881701764884,-9.586308112349506,-1.1624178075474967,-0.0009113950276862156,0.0016312735188530668,-0.0023750931502048585,0.11296992518139087,0.09576538492322102,-0.028362858352959243,-0.000986787918349706,0.0019832189761632927,8.947441500238062e-05,-0.0024788070063227648,-0.07724624714136527,-0.008795344345063863
0.003490658476948738,0.003490658476948738,-0.003490658476948738,-1.3939940671290816,-9.522103600520072,-1.1722954247520248,-0.0009113950276862156,0.0016312735188530668,-0.0023750931502048585,0.11296992518139087,0.09576538492322102,-0.028362858352959243,0.0007585439541402917,0.000237892371806019,8.948592367660582e-05,0.02218173425992893,-0.013026850476952795,-0.018754407891690115
0.003490658476948738,0.001745329238474369,-0.001745329238474369,-1.380050108603175,-9.492836952209473,-1.1741104580675914,-0.0009113950276862156,0.0016312735188530668,-0.0023750931502048585,0.11296992518139087,0.09576538492322102,-0.028362858352959243,0.0007585430437814571,-0.0015074289024982121,0.001834823126321644,0.036092131290553005,0.016254681824015293,-0.020650887821504437
0.001745329238474369,0.0,-0.001745329238474369,-1.3751113000009108,-9.492836952209473,-1.1691716494653273,-0.0009113950276862156,0.0016312735188530668,-0.0023750931502048585,0.11296992518139087,0.09576538492322102,-0.028362858352959243,-0.00032881104915146586,-0.0028106836032824297,0.0010541294702045212,0.04238540359544717,0.03562724042109069,-0.018210112994403324
0.0,0.0,0.0,-1.3839530086032865,-9.53416947108221,-1.1642358517767908,-0.0009113950276862156,0.0016312735188530668,-0.0023750931502048585,0.11296992518139087,0.09576538492322102,-0.028362858352959243,-0.0006230241211452869,-0.0018357112870274648,0.0010776791207494857,0.036591322136546915,0.03699676685035207,-0.018671665908528957
0.0,0.001745329238474369,0.0,-1.4037053891045472,-9.608240897961938,-1.1592977566514755,-0.0009113950276862156,0.0016312735188530668,-0.0023750931502048585,0.11296992518139087,0.09576538492322102,-0.028362858352959243,-0.0006230212848647679,-9.038204888785209e-05,0.0010776757665636792,0.016869788109105166,-0.03707534993532884,-0.01376994325261223
0.0,0.001745329238474369,0.0,-1.4065070044850922,-9.61733432287201,-1.160009985573311,-0.0009113950276862156,0.0016312735188530668,-0.0023750931502048585,0.11296992518139087,0.09576538492322102,-0.028362858352959243,-0.0006230212847530318,-9.038205020031033e-05,0.0010776757664776291,0.01409901628295576,-0.046169464925726926,-0.01451854116366478
0.0,0.001745329238474369,0.0,-1.3966340882215522,-9.57784265781785,-1.164946443705081,-0.0009113950276862156,0.0016312735188530668,-0.0023750931502048585,0.11296992518139087,0.09576538492322102,-0.028362858352959243,-0.0006659129524912776,0.00011315487346583908,0.0019324230522381617,0.013666593502084065,-0.030821292971348283,-0.02197394958169186
0.001745329238474369,0.0,-0.001745329238474369,-1.3780747380217109,-9.52675659191025,-1.1612035193120318,-0.0009113950276862156,0.0016312735188530668,-0.0023750931502048585,0.11296992518139087,0.09576538492322102,-0.028362858352959243,0.0009879172241612374,-0.0011979632878564381,0.002010539538004173,0.010186290020404807,-0.031236675554251216,-0.02356507684961274
0.001745329238474369,0.0,-0.001745329238474369,-1.3533806349743043,-9.46749088868308,-1.1513258420714172,-0.0009113950276862156,0.0016312735188530668,-0.0023750931502048585,0.11296992518139087,0.09576538492322102,-0.028362858352959243,0.0009879172242155104,-0.0011979632878718841,0.00201053953806339,0.03484842458991402,0.02803885654263,-0.013729121301396611
0.0,0.0,-0.003490658476948738,-1.3553724357228192,-9.479388030136166,-1.1503433574566613,-0.0009113950276862156,0.0016312735188530668,-0.0023750931502048585,0.11296992518139087,0.09576538492322102,-0.028362858352959243,-0.000757412962205355,-0.0011979699536069106,0.0002652112456169046,0.032824655284221474,0.016151543674291276,-0.012788358385429707
0.0,0.001745329238474369,-0.003490658476948738,-1.375118328257413,-9.538625527717404,-1.1552798755959452,-0.0009113950276862156,0.0016312735188530668,-0.0023750931502048585,0.11296992518139087,0.09576538492322102,-0.028362858352959243,-0.0004519209474794975,0.000614933195102389,-8.63648483973278e-05,0.024260264950031175,-0.024781877022696408,-0.01595047164940131
0.0,0.0,-0.001745329238474369,-1.3979076100163774,-9.582721294375464,-1.1571847200393677,-0.0009113950276862156,0.0016312735188530668,-0.0023750931502048585,0.11296992518139087,0.09576538492322102,-0.028362858352959243,0.00017830871724425004,-0.0009909916633382737,0.0009336806252870598,0.02458058211386325,-0.03112931622376272,-0.014143598226051764
0.0,0.0,-0.001745329238474369,-1.422601713063784,-9.617292954591314,-1.1571847200393677,-0.0009113950276862156,0.0016312735188530668,-0.0023750931502048585,0.11296992518139087,0.09576538492322102,-0.028362858352959243,0.00017830871726813187,-0.0009909916631191706,0.0009336806254249732,-0.00011907735172975304,-0.06569776074803207,-0.014163775799586888
0.0,0.0,0.0,-1.4131382333027152,-9.577337306661612,-1.1602901616562111,-0.0009113950276862156,0.0016312735188530668,-0.0023750931502048585,0.11296992518139087,0.09576538492322102,-0.028362858352959243,0.00017831011553860556,-0.0009909900619481363,0.0026790098635005696,0.009338845427456277,-0.025738896861950807,-0.017289396907536288
0.0,0.0,-0.001745329238474369,-1.3835194245045814,-9.493417518421522,-1.165226619787981,-0.0009113950276862156,0.0016312735188530668,-0.0023750931502048585,0.11296992518139087,0.09576538492322102,-0.028362858352959243,0.00023970730146419055,-0.0017169484511928507,0.0011190419177867532,0.03511286159079209,0.04557679657422247,-0.022757996979168083
0.0,0.0,0.0,-1.3761050789258287,-9.4697652039332,-1.1638172776797013,-0.0009113950276862156,0.0016312735188530668,-0.0023750931502048585,0.11296992518139087,0.09576538492322102,-0.028362858352959243,0.00036223935356461724,-0.003165755408094758,0.00323430215192953,0.03485313468581868,0.04407215714462106,-0.022386253782498255
-0.001745329238474369,0.001745329238474369,-0.001745329238474369,-1.3810420071516973,-9.479639060384939,-1.1588803494538324,-0.0009113950276862156,0.0016312735188530668,-0.0023750931502048585,0.11296992518139087,0.09576538492322102,-0.028362858352959243,-0.001383088409920849,-0.0014204292471891012,0.0014889683600320081,0.029891256348163923,0.034203109629864475,-0.017456683728208158
0.0,0.003490658476948738,-0.001745329238474369,-1.3957090947452007,-9.528430422840502,-1.1571847200393677,-0.0009113950276862156,0.0016312735188530668,-0.0023750931502048585,0.11296992518139087,0.09576538492322102,-0.028362858352959243,0.0003622389504075812,0.0003249018694195132,0.0014889705137092056,0.015199211533567073,-0.014583442578812672,-0.01576841468977
0.0,0.003490658476948738,-0.003490658476948738,-1.4154652761932986,-9.597577057908845,-1.1571847200393677,-0.0009113950276862156,0.0016312735188530668,-0.0023750931502048585,0.11296992518139087,0.09576538492322102,-0.028362858352959243,0.0001406449134277025,0.0009593583005954285,-0.0001988635058277193,-0.00835306229193082,-0.0878033902021494,-0.011949233252137446
0.0,0.001745329238474369,-0.005235987715423107,-1.4120183610136536,-9.583855220190934,-1.1604999892176777,-0.0009113950276862156,0.0016312735188530668,-0.0023750931502048585,0.11296992518139087,0.09576538492322102,-0.028362858352959243,-0.0002874016066781941,0.0004395701944958831,-0.0018331316892398284,-0.012215195268043703,-0.08195337627713642,-0.0078881174374843
0.0,0.0,-0.003490658476948738,-1.3972047358921336,-9.52953859474536,-1.1654378642581844,-0.0009113950276862156,0.0016312735188530668,-0.0023750931502048585,0.11296992518139087,0.09576538492322102,-0.028362858352959243,-0.00028739864917624896,-0.0013057564245477038,-8.779983059760311e-05,0.0025746476346397026,-0.027629483375690957,-0.012856034116842302
0.0,0.0,-0.001745329238474369,-1.379003637989383,-9.48875418496117,-1.1737616482462627,-0.0009113950276862156,0.0016312735188530668,-0.0023750931502048585,0.11296992518139087,0.09576538492322102,-0.028362858352959243,-0.0002873979375278292,-0.00130575380427271,0.0016575294081193602,0.020751956481722636,0.013162195788955734,-0.021209868327888202
0.0,0.0,0.0,-1.3592483435442404,-9.454182524745322,-1.1836392654507908,-0.0009113950276862156,0.0016312735188530668,-0.0023750931502048585,0.11296992518139087,0.09576538492322102,-0.028362858352959243,0.0002374001985899065,-0.0014462136435085397,0.00391007486710339,0.035491447564248164,0.06566791544785923,-0.03202882719037702
0.0,0.0,-0.001745329238474369,-1.3602261632362311,-9.495617558804028,-1.1796961161498398,-0.0009113950276862156,0.0016312735188530668,-0.0023750931502048585,0.11296992518139087,0.09576538492322102,-0.028362858352959243,0.0012201043723571712,-0.0017092316090344842,0.0031145274198616816,0.025129328274445802,0.057809132675141386,-0.029809078931950977
0.0,0.0,-0.003490658476948738,-1.3701047806707578,-9.569706739249472,-1.169817558757114,-0.0009113950276862156,0.0016312735188530668,-0.0023750931502048585,0.11296992518139087,0.09576538492322102,-0.028362858352959243,0.001220104541643699,-0.0017092309346919252,0.001369198181594402,0.015190430454589425,-0.01627158894652725,-0.0199227669713026
-0.001745329238474369,0.0,-0.005235987715423107,-1.3729310035705566,-9.590903282165527,-1.1634661173878782,-0.0009113950276862156,0.0016312735188530668,-0.0023750931502048585,0.11296992518139087,0.09576538492322102,-0.028362858352959243,-0.0005252245257788978,-0.0017092356911226497,-0.0003761312274774983,0.012303938589636174,-0.03745967503004193,-0.013563572515451724
-0.001745329238474369,0.001745329238474369,-0.003490658476948738,-1.3729310035705566,-9.590903282165527,-1.1585273087856143,-0.0009113950276862156,0.0016312735188530668,-0.0023750931502048585,0.11296992518139087,0.09576538492322102,-0.028362858352959243,-8.63840072447959e-05,-0.000429875004069783,0.0002319891436861725,0.014878266874580773,-0.05258873795112399,-0.004663370905929142
-0.001745329238474369,0.003490658476948738,-0.001745329238474369,-1.3693366640909346,-9.547771208410062,-1.1679677384782345,-0.0009113950276862156,0.0016312735188530668,-0.0023750931502048585,0.11296992518139087,0.09576538492322102,-0.028362858352959243,0.000709371270355089,0.0004705206858958857,-8.47656599354879e-05,0.023215941117099206,-0.03690237150820165,-0.006914686614161501
0.0,0.003490658476948738,0.0,-1.3643973853945714,-9.488499864053706,-1.182785574567323,-0.0009113950276862156,0.0016312735188530668,-0.0023750931502048585,0.11296992518139087,0.09576538492322102,-0.028362858352959243,0.002454697473126455,0.00047051575104920424,0.0016605666138060735,0.02816847425860966,0.022361898879629864,-0.021690144697515772
-0.001745329238474369,0.001745329238474369,0.0,-1.374120341640586,-9.498880952038077,-1.1829392953376392,-0.0009113950276862156,0.0016312735188530668,-0.0023750931502048585,0.11296992518139087,0.09576538492322102,-0.028362858352959243,0.0007093666735932456,-0.0012748119249449451,0.0016605602052945727,0.0184587697747072,0.011973738085753671,-0.021801495509958725
-0.003490658476948738,0.0,0.0,-1.3889311263181923,-9.53343944961916,-1.1780023671117705,-0.0009113950276862156,0.0016312735188530668,-0.0023750931502048585,0.11296992518139087,0.09576538492322102,-0.028362858352959243,-0.0005422419292336889,-0.002320270786597823,0.001660548356271075,0.007038463169992836,-0.00445556939122529,-0.01767602174920169
-0.003490658476948738,0.0,-0.001745329238474369,-1.3962785180766313,-9.575478353821275,-1.1693294890008508,-0.0009113950276862156,0.0016312735188530668,-0.0023750931502048585,0.11296992518139087,0.09576538492322102,-0.028362858352959243,0.0003253354472214793,-0.0010904432401485776,-8.4786556515154e-05,0.005640929359500106,-0.014633589464698922,-0.010451603718085031
-0.003490658476948738,0.0,0.0,-1.4012170899418328,-9.619925500608087,-1.1594523452704482,-0.0009113950276862156,0.0016312735188530668,-0.0023750931502048585,0.11296992518139087,0.09576538492322102,-0.028362858352959243,0.0003253366293360803,-0.0010904495892918942,0.0016605426819295962,0.0007211725572204002,-0.05909167296682023,-0.0005062554148954524
-0.003490658476948738,0.0,0.0,-1.3833261481250763,-9.580665572881298,-1.1724044865829524,-0.0009113950276862156,0.0016312735188530668,-0.0023750931502048585,0.11296992518139087,0.09576538492322102,-0.028362858352959243,0.0003253366293113915,-0.0010904495867540885,0.0016605426836032557,0.018630929509718612,-0.019842682485240223,-0.013390192259677398
-0.003490658476948738,0.0,0.0,-1.3586414469825039,-9.516485505945004,-1.1921521994864275,-0.0009113950276862156,0.0016312735188530668,-0.0023750931502048585,0.11296992518139087,0.09576538492322102,-0.028362858352959243,0.0001328693112534274,-0.0007855566601282487,0.0017715913094676174,0.04301596904221395,0.02072687163964853,-0.02983071425985193
-0.003490658476948738,0.0,-0.001745329238474369,-1.3533176183700562,-9.483269642999396,-1.1964112520217896,-0.0009113950276862156,0.0016312735188530668,-0.0023750931502048585,0.11296992518139087,0.09576538492322102,-0.028362858352959243,-0.0001948771441155336,-0.0002663631887863173,0.000215363966795975,0.04781440474000122,0.013746027341160424,-0.028512235619906116
-0.003490658476948738,0.0,-0.001745329238474369,-1.3533176183700562,-9.458573215033045,-1.1964112520217896,-0.0009113950276862156,0.0016312735188530668,-0.0023750931502048585,0.11296992518139087,0.09576538492322102,-0.028362858352959243,-0.00019487714403966947,-0.00026636318876067114,0.0002153639667630205,0.04782825671658249,0.0384340784597201,-0.028460124528184146
-0.003490658476948738,-0.001745329238474369,0.0,-1.384889233992933,-9.500967699742764,-1.1806254921832184,-0.0009113950276862156,0.0016312735188530668,-0.0023750931502048585,0.11296992518139087,0.09576538492322102,-0.028362858352959243,-0.0001948750670122807,-0.0020116976375469642,0.0019606879949165524,0.01627049455836894,-0.0039687842208301705,-0.012622248734680364
-0.001745329238474369,-0.001745329238474369,0.0,-1.4243885405905596,-9.560216479582376,-1.160875898903348,-0.0009113950276862156,0.0016312735188530668,-0.0023750931502048585,0.11296992518139087,0.09576538492322102,-0.028362858352959243,0.0003626927798390534,-0.003014596796104514,0.0018024446768845905,-0.01697300956524019,-0.053002427467411406,0.005050807764239302
0.0,0.0,0.0,-1.423738844162334,-9.575306030060585,-1.1612007339256367,-0.0009113950276862156,0.0016312735188530668,-0.0023750931502048585,0.11296992518139087,0.09576538492322102,-0.028362858352959243,0.00014779674664627758,-0.0029244038993714986,0.0015412918055914351,-0.00600705971485131,-0.051225166369000937,0.0012404146766489294
0.0,0.0,0.0,-1.4138621071156319,-9.580244368568751,-1.1661390724338019,-0.0009113950276862156,0.0016312735188530668,-0.0023750931502048585,0.11296992518139087,0.09576538492322102,-0.028362858352959243,0.0001477967461182471,-0.0029244038993791765,0.001541291805887065,0.0038860938128166644,-0.056164532619052805,-0.0037113640342749006
0.0,0.003490658476948738,0.0,-1.3917288126603837,-9.523896225070658,-1.1792485867705302,-0.0009113950276862156,0.0016312735188530668,-0.0023750931502048585,0.11296992518139087,0.09576538492322102,-0.028362858352959243,0.0001478003921573648,0.000566254577099537,0.0015412884678142793,0.02603580635315028,0.00018258297932528233,-0.016834319798030416
-0.001745329238474369,0.003490658476948738,-0.001745329238474369,-1.3670489037891043,-9.454792480231076,-1.1940565320932977,-0.0009113950276862156,0.0016312735188530668,-0.0023750931502048585,0.11296992518139087,0.09576538492322102,-0.028362858352959243,-0.0004963854612655226,-0.00011223341439867996,0.0005923982371085185,0.04804976208560506,0.07867219270881783,-0.023809597298827586
-0.001745329238474369,0.003490658476948738,-0.001745329238474369,-1.3714332119730495,-9.481193573522887,-1.1964112520217896,-0.0009113950276862156,0.0016312735188530668,-0.0023750931502048585,0.11296992518139087,0.09576538492322102,-0.028362858352959243,0.001265109328337815,-0.001197613636320097,0.0018664726145116812,0.039369666643334696,0.0672862216318659,-0.013597197586159763
-0.003490658476948738,0.003490658476948738,-0.001745329238474369,-1.3813103624638294,-9.525640750731398,-1.1964112520217896,-0.0009113950276862156,0.0016312735188530668,-0.0023750931502048585,0.11296992518139087,0.09576538492322102,-0.028362858352959243,-0.0004802199090644372,-0.0011976163380159935,0.0018664659345121962,0.02945380805574512,0.022837694884121847,-0.013534834674622805
-0.003490658476948738,0.003490658476948738,-0.003490658476948738,-1.3954076127177157,-9.578520063414258,-1.1964112520217896,-0.0009113950276862156,0.0016312735188530668,-0.0023750931502048585,0.11296992518139087,0.09576538492322102,-0.028362858352959243,-0.00048021322892163073,-0.0011976117518506357,0.0001211366941359837,0.015317856602092032,-0.03004296752859543,-0.013472483940561641
-0.003490658476948738,0.003490658476948738,-0.003490658476948738,-1.410224038524508,-9.632846958039162,-1.1964112520217896,-0.0009113950276862156,0.0016312735188530668,-0.0023750931502048585,0.11296992518139087,0.09576538492322102,-0.028362858352959243,-0.0009393149732937817,-0.0005099677542980913,-0.0007852424187533687,-0.0031054520415975256,-0.1052371594663207,-0.008765373860750714
-0.003490658476948738,0.001745329238474369,-0.001745329238474369,-1.394980297181883,-9.571227493659173,-1.2007055616145634,-0.0009113950276862156,0.0016312735188530668,-0.0023750931502048585,0.11296992518139087,0.09576538492322102,-0.028362858352959243,-0.0016514927263497285,-0.001188596609582682,-0.0004459252732638421,0.006588353553887663,-0.07598929272170703,-0.00580620418116793
-0.001745329238474369,0.001745329238474369,0.0,-1.3752325842784079,-9.492236642045272,-1.2056424898404323,-0.0009113950276862156,0.0016312735188530668,-0.0023750931502048585,0.11296992518139087,0.09576538492322102,-0.028362858352959243,9.383366393112059e-05,-0.001188600987801308,0.001299406810610692,0.026358091631528496,0.0029947703638207946,-0.01071591492341517
-0.001745329238474369,0.001745329238474369,0.0,-1.3729310035705566,-9.474303492363266,-1.2105812984426962,-0.0009113950276862156,0.0016312735188530668,-0.0023750931502048585,0.11296992518139087,0.09576538492322102,-0.028362858352959243,9.383366419645326e-05,-0.001188600987563032,0.001299406810761641,0.0286817099910186,0.020921127516025484,-0.01562749043457936
-0.001745329238474369,0.001745329238474369,0.0,-1.3729310035705566,-9.464425875158737,-1.2155201070449604,-0.0009113950276862156,0.0016312735188530668,-0.0023750931502048585,0.11296992518139087,0.09576538492322102,-0.028362858352959243,0.0003438942685610746,-0.0014024656546077732,0.0011472959043974948,0.038721148269810636,0.057916568675353844,-0.016020905601633266
-0.003490658476948738,0.001745329238474369,0.0,-1.3995323425969888,-9.538787361097484,-1.2160245180130005,-0.0009113950276862156,0.0016312735188530668,-0.0023750931502048585,0.11296992518139087,0.09576538492322102,-0.028362858352959243,-0.0010250920291485024,-0.0017243305653512045,0.0009183641264971004,0.02722130276953627,0.024369613257204496,-0.009691103945816576
-0.003490658476948738,0.001745329238474369,0.0,-1.4291454732146676,-9.622691061192214,-1.2160245180130005,-0.0009113950276862156,0.0016312735188530668,-0.0023750931502048585,0.11296992518139087,0.09576538492322102,-0.028362858352959243,-0.0010250920322896235,-0.0017243305652925795,0.0009183641231279457,-0.0023620226825717457,-0.059544286094618,-0.009646433370446902
-0.003490658476948738,0.003490658476948738,0.0,-1.4092681540814889,-9.58962493261372,-1.2205251151142216,-0.0009113950276862156,0.0016312735188530668,-0.0023750931502048585,0.11296992518139087,0.09576538492322102,-0.028362858352959243,-0.0010250888475413188,2.0998673221282525e-05,0.0009183675209373554,0.01754511840307053,-0.02648836288357005,-0.014102334275111553
-0.001745329238474369,0.001745329238474369,0.0,-1.3845799683404771,-9.545186306318957,-1.2254628002797838,-0.0009113950276862156,0.0016312735188530668,-0.0023750931502048585,0.11296992518139087,0.09576538492322102,-0.028362858352959243,-0.0006009223381431043,-0.0008012947041736594,0.0014581363052030658,0.0376896138607178,-0.012600934354598928,-0.013746205393786624
0.0,0.0,-0.001745329238474369,-1.3735971269085927,-9.487027059242084,-1.2258312702178955,-0.0009113950276862156,0.0016312735188530668,-0.0023750931502048585,0.11296992518139087,0.09576538492322102,-0.028362858352959243,-0.0007842824581164548,-0.0011991315779459914,0.0005007861168003425,0.042015120036479205,0.00096897633216228,-0.006442669985094304
0.0,0.0,0.0,-1.363724210645053,-9.427789561660845,-1.2258312702178955,-0.0009113950276862156,0.0016312735188530668,-0.0023750931502048585,0.11296992518139087,0.09576538492322102,-0.028362858352959243,-0.0007842815133291962,-0.001199127870492076,0.002246115357104726,0.05189241966851073,0.0602110365394743,-0.006485010274831441
0.0,0.0,-0.001745329238474369,-1.395593711754529,-9.48912909082906,-1.2351082087305847,-0.0009113950276862156,0.0016312735188530668,-0.0023750931502048585,0.11296992518139087,0.09576538492322102,-0.028362858352959243,-0.0007842824582285572,-0.0011991315773319305,0.0005007861181226463,0.02002730438769143,-0.0011239275770260576,-0.01580431329354303
0.0,0.0,-0.001745329238474369,-1.4301588043102735,-9.558259155891395,-1.2449839323109184,-0.0009113950276862156,0.0016312735188530668,-0.0023750931502048585,0.11296992518139087,0.09576538492322102,-0.028362858352959243,-0.0009128577378138804,-0.0013304461562217303,8.682488226030363e-05,-0.004415204043383649,-0.04622503723408302,-0.02991395396069159
-0.001745329238474369,0.0,0.0,-1.4364770327768244,-9.599132279365474,-1.2266200309082953,-0.0009113950276862156,0.0016312735188530668,-0.0023750931502048585,0.11296992518139087,0.09576538492322102,-0.028362858352959243,-0.0028404957488767503,-0.001516633280250826,0.0012451934849851045,0.0036272977461558335,-0.05303036156709579,-0.01753852543923331
0.0,0.0,0.0,-1.4414158413790885,-9.638642748183587,-1.2068647364631526,-0.0009113950276862156,0.0016312735188530668,-0.0023750931502048585,0.11296992518139087,0.09576538492322102,-0.028362858352959243,-0.0010951665104058817,-0.001516635750175643,0.0012451932343283886,-0.0012838833040989348,-0.09253929168840172,0.0021678622412793784
0.0,0.0,0.0,-1.412920413158964,-9.544412838707089,-1.2205464843420453,-0.0009113950276862156,0.0016312735188530668,-0.0023750931502048585,0.11296992518139087,0.09576538492322102,-0.028362858352959243,-0.0010951665105256353,-0.0015166357497314177,0.0012451932347187764,0.02723917245834754,0.0016921561609009445,-0.011562792417908302
0.001745329238474369,0.0,-0.001745329238474369,-1.3832903623638066,-9.445646202824197,-1.2353615397547693,-0.0009113950276862156,0.0016312735188530668,-0.0023750931502048585,0.11296992518139087,0.09576538492322102,-0.028362858352959243,9.811127187488087e-05,-0.0014896573359312899,0.0004349642982949599,0.04637116657199611,0.09009404374318539,-0.025084435055857664
0.001745329238474369,0.0,-0.003490658476948738,-1.382737636566162,-9.458336746296645,-1.235637903213501,-0.0009113950276862156,0.0016312735188530668,-0.0023750931502048585,0.11296992518139087,0.09576538492322102,-0.028362858352959243,-0.0006613964339718376,-0.0014525341672415916,-2.3861194688613393e-05,0.03244784834448915,0.06314848520324584,-0.023576188022697175
0.001745329238474369,0.0,-0.003490658476948738,-1.382737636566162,-9.473153172103439,-1.235637903213501,-0.0009113950276862156,0.0016312735188530668,-0.0023750931502048585,0.11296992518139087,0.09576538492322102,-0.028362858352959243,-0.0006613964341557093,-0.0014525341670940729,-2.386119465822657e-05,0.03242207976870155,0.04834607588531041,-0.02365680428486741
0.0,0.0,-0.003490658476948738,-1.3974807213400013,-9.551853471678736,-1.2258091202920327,-0.0009113950276862156,0.0016312735188530668,-0.0023750931502048585,0.11296992518139087,0.09576538492322102,-0.028362858352959243,-0.002406725673490958,-0.0014525365518370183,-2.386080700540944e-05,0.017653226344655135,-0.03034020794161561,-0.013908637730525893
0.0,0.0,-0.001745329238474369,-1.4120264107276275,-9.629692731396778,-1.2159371014627665,-0.0009113950276862156,0.0016312735188530668,-0.0023750931502048585,0.11296992518139087,0.09576538492322102,-0.028362858352959243,-0.002029454402662642,-0.0014564704931603974,0.0006151208150605396,-0.0003244374670493883,-0.1181596755373971,-0.018750300653603773
0.0,0.0,0.0,-1.3972135352960406,-9.580316479958157,-1.206061851175042,-0.0009113950276862156,0.0016312735188530668,-0.0023750931502048585,0.11296992518139087,0.09576538492322102,-0.028362858352959243,-0.0015252520023082278,-0.0014617378163350502,0.0008818755353376677,0.009937065118919512,-0.08213174895226745,-0.028502755207611738
0.0,0.0,0.0,-1.382737636566162,-9.530827606806081,-1.1962988995321702,-0.0009113950276862156,0.0016312735188530668,-0.0023750931502048585,0.11296992518139087,0.09576538492322102,-0.028362858352959243,-0.001525252002464132,-0.0014617378163271472,0.0008818755354226233,0.02444933572138893,-0.032641547728204594,-0.018799004507935323
0.0,0.0,0.0,-1.382737636566162,-9.476500712181178,-1.191360090929906,-0.0009113950276862156,0.0016312735188530668,-0.0023750931502048585,0.11296992518139087,0.09576538492322102,-0.028362858352959243,-0.0015252520013746126,-0.001461737818404995,0.0008818755333859576,0.024485707573804232,0.021686674471321436,-0.013919396872421401
0.0,0.0,-0.001745329238474369,-1.3832819011723883,-9.427637530413,-1.1864231974907753,-0.0009113950276862156,0.0016312735188530668,-0.0023750931502048585,0.11296992518139087,0.09576538492322102,-0.028362858352959243,-0.0019099092695969895,-0.001365746561006219,0.00018108627261982367,0.030480085215845876,0.10827481891275016,-0.014995618351211458
0.0,0.0,-0.001745329238474369,-1.3980940765309557,-9.521447974350593,-1.181485805704586,-0.0009113950276862156,0.0016312735188530668,-0.0023750931502048585,0.11296992518139087,0.09576538492322102,-0.028362858352959243,-0.002408877633864255,-0.0012412167338039896,0.0015360414205371935,0.02411417083217548,0.06340498423173334,-0.017850974589841726
0.0,0.0,-0.003490658476948738,-1.4119070234328415,-9.61126808451715,-1.1770484981507154,-0.0009113950276862156,0.0016312735188530668,-0.0023750931502048585,0.11296992518139087,0.09576538492322102,-0.028362858352959243,-0.00240887848720924,-0.0012412239905229222,-0.0002092878209141206,0.01028035556775018,-0.02640219840909107,-0.013495685666867709
0.0,0.0,-0.003490658476948738,-1.4069710416585859,-9.626076029839918,-1.1819844799249715,-0.0009113950276862156,0.0016312735188530668,-0.0023750931502048585,0.11296992518139087,0.09576538492322102,-0.028362858352959243,-0.002408878486806501,-0.0012412239918399995,-0.00020928781853607337,0.015195478800751231,-0.04119722308703944,-0.018513647128619748
0.001745329238474369,0.0,-0.003490658476948738,-1.4010800118015563,-9.632628825297608,-1.1872400644040924,-0.0009113950276862156,0.0016312735188530668,-0.0023750931502048585,0.11296992518139087,0.09576538492322102,-0.028362858352959243,-0.0024631533755664135,-0.0009977896331861728,-0.0005761569133690628,0.012135708080454582,-0.09677583434563766,-0.02226685725495093
0.003490658476948738,0.0,-0.001745329238474369,-1.3813304446568,-9.51906881421526,-1.1971148479764706,-0.0009113950276862156,0.0016312735188530668,-0.0023750931502048585,0.11296992518139087,0.09576538492322102,-0.028362858352959243,-0.0029837758095654266,-0.00069126242089278,0.0007072317048367617,0.0206301178527651,-0.04494580622476467,-0.03027179813640448
0.005235987715423107,0.0,-0.001745329238474369,-1.3646697436537698,-9.417860977671971,-1.2046725119385764,-0.0009113950276862156,0.0016312735188530668,-0.0023750931502048585,0.11296992518139087,0.09576538492322102,-0.028362858352959243,-0.00123844657107676,-0.0006912622509985209,0.0007072296509786324,0.03729164251222535,0.05628338470252206,-0.03801007428137494
0.005235987715423107,0.0,-0.001745329238474369,-1.3844230708303482,-9.462305963819272,-1.184919184761998,-0.0009113950276862156,0.0016312735188530668,-0.0023750931502048585,0.11296992518139087,0.09576538492322102,-0.028362858352959243,-0.001238446571447464,-0.0006912622549080365,0.0007072296463943149,0.01753913864100685,0.011859751630126486,-0.0184373768760217
0.003490658476948738,-0.001745329238474369,-0.003490658476948738,-1.403711504376564,-9.508993034633365,-1.1665378209329527,-0.0009113950276862156,0.0016312735188530668,-0.0023750931502048585,0.11296992518139087,0.09576538492322102,-0.028362858352959243,-0.002972346075990961,-0.00312749592613748,-0.0008590276338481203,0.0073180387381266655,-0.0012133620703529205,-0.012132933923384692
0.003490658476948738,-0.001745329238474369,-0.001745329238474369,-1.4185244398298513,-9.578119786647438,-1.1616001957890905,-0.0009113950276862156,0.0016312735188530668,-0.0023750931502048585,0.11296992518139087,0.09576538492322102,-0.028362858352959243,-0.002958371297541121,-0.003972123983801953,0.0011052118024350481,0.0035838751595565917,-0.029249897542395504,-0.02191836996153302
0.003490658476948738,0.0,-0.001745329238474369,-1.4291600423095725,-9.631581656435197,-1.15770689445864,-0.0009113950276862156,0.0016312735188530668,-0.0023750931502048585,0.11296992518139087,0.09576538492322102,-0.028362858352959243,-0.0029583723369292964,-0.0022267947485824827,0.0011051957064338474,-0.007064870055049573,-0.08268945201629471,-0.01820059310459624
0.003490658476948738,0.001745329238474369,-0.003490658476948738,-1.4044800734365697,-9.552605948047102,-1.162642876232896,-0.0009113950276862156,0.0016312735188530668,-0.0023750931502048585,0.11296992518139087,0.09576538492322102,-0.028362858352959243,-0.0029583720742195133,-0.0004814815958370059,-0.0006401496137691101,0.01760196132208964,-0.0036914400604213604,-0.023312032954825247
0.005235987715423107,0.003490658476948738,-0.003490658476948738,-1.381558640566307,-9.480672327214158,-1.1669913530349731,-0.0009113950276862156,0.0016312735188530668,-0.0023750931502048585,0.11296992518139087,0.09576538492322102,-0.028362858352959243,-0.0007253243993997419,0.0015875028448830977,-0.0005640212338788591,0.024163780433535828,0.055668894423089615,-0.028543429140981135
0.005235987715423107,0.001745329238474369,-0.003490658476948738,-1.3716810233617789,-9.4609170928051,-1.1669913530349731,-0.0009113950276862156,0.0016312735188530668,-0.0023750931502048585,0.11296992518139087,0.09576538492322102,-0.028362858352959243,-0.00014643560493576594,0.00022632883262902346,-0.00047363416124356815,0.01462527810149532,0.060495235307791606,-0.02954759247935797
0.005235987715423107,0.0,-0.001745329238474369,-1.3644413217205869,-9.456973298687801,-1.1663328774621553,-0.0009113950276862156,0.0016312735188530668,-0.0023750931502048585,0.11296992518139087,0.09576538492322102,-0.028362858352959243,-0.00014643395632078245,-0.0015189866491155683,0.0012717088348929246,0.021849835079064312,0.06445891404634672,-0.029041080357290486
0.001745329238474369,0.0,-0.001745329238474369,-1.3743170453009204,-9.555730534491138,-1.1613950156719886,-0.0009113950276862156,0.0016312735188530668,-0.0023750931502048585,0.11296992518139087,0.09576538492322102,-0.028362858352959243,-0.0036370924340150576,-0.0015189894598747122,0.0012717093187310745,0.011958958107099547,-0.03427842819514293,-0.02425526915518129
0.0,-0.001745329238474369,-0.003490658476948738,-1.3834628527038193,-9.637760798730582,-1.155734278948336,-0.0009113950276862156,0.0016312735188530668,-0.0023750931502048585,0.11296992518139087,0.09576538492322102,-0.028362858352959243,-0.003383725478292512,-0.0030528479502734975,-0.0008662671707022182,0.00438580131318488,-0.10665783321691667,-0.028281262071759336
0.0,0.0,-0.003490658476948738,-1.388401184497964,-9.622945803348149,-1.1458575553297567,-0.0009113950276862156,0.0016312735188530668,-0.0023750931502048585,0.11296992518139087,0.09576538492322102,-0.028362858352959243,-0.0010764353493150033,-0.001063381481358068,-0.001319561218198502,0.0012752815542810068,-0.08071220747778995,-0.029516373829669516
-0.001745329238474369,0.0,-0.003490658476948738,-1.390159939382678,-9.597800120534927,-1.1383661115652304,-0.0009113950276862156,0.0016312735188530668,-0.0023750931502048585,0.11296992518139087,0.09576538492322102,-0.028362858352959243,-0.0028217645878143086,-0.0010633810354864013,-0.0013195599768404222,-0.0004770008890806066,-0.05556187539330236,-0.02207505675358037
-0.001745329238474369,0.0,-0.001745329238474369,-1.3753463540121773,-9.518794331892257,-1.1433039733553971,-0.0009113950276862156,0.0016312735188530668,-0.0023750931502048585,0.11296992518139087,0.09576538492322102,-0.028362858352959243,-0.002821763346627889,-0.0010633766913305956,0.00042576925928238316,0.014343056853844276,0.023448562267733602,-0.02706304526454781
0.0,0.0,0.0,-1.3648473225811761,-9.45964075224884,-1.145655015828248,-0.0009113950276862156,0.0016312735188530668,-0.0023750931502048585,0.11296992518139087,0.09576538492322102,-0.028362858352959243,-0.0005142387088568357,-0.0009181077559250849,0.0014242193443702682,0.025043456670754503,0.08502702583254734,-0.030149658900083535
0.0,0.0,0.0,-1.3747235128318065,-9.494207418126043,-1.1357788255776173,-0.0009113950276862156,0.0016312735188530668,-0.0023750931502048585,0.11296992518139087,0.09576538492322102,-0.028362858352959243,0.00011593113623690041,-0.0007552806235648152,0.0005870337789883784,0.015410642123455337,0.05317353335246456,-0.021078942433104896
-0.001745329238474369,0.0,0.0,-1.383668244442093,-9.53249353783153,-1.1305565367835104,-0.0009113950276862156,0.0016312735188530668,-0.0023750931502048585,0.11296992518139087,0.09576538492322102,-0.028362858352959243,-0.0016293981021952878,-0.0007552767151977481,0.0005870356938047568,0.006511483644190458,0.014882845974186187,-0.015879165735868048
-0.003490658476948738,-0.001745329238474369,0.0,-1.3886061062322599,-9.586810017523364,-1.1453701821785878,-0.0009113950276862156,0.0016312735188530668,-0.0023750931502048585,0.11296992518139087,0.09576538492322102,-0.028362858352959243,-0.003374731246681615,-0.0025006020491285044,0.0005870393445026289,0.0016191949151898035,-0.03943820163940342,-0.030715323318704982
-0.001745329238474369,0.0,-0.001745329238474369,-1.3865590193694393,-9.616164258660032,-1.1591797993947843,-0.0009113950276862156,0.0016312735188530668,-0.0023750931502048585,0.11296992518139087,0.09576538492322102,-0.028362858352959243,-0.001488533267742562,-0.001211842403050033,-0.0002343636289724218,-0.009789798423097622,-0.09148450072788948,-0.03260677046997913
-0.001745329238474369,0.0,-0.001745329238474369,-1.3569261077197685,-9.547020938228336,-1.1690574165993126,-0.0009113950276862156,0.0016312735188530668,-0.0023750931502048585,0.11296992518139087,0.09576538492322102,-0.028362858352959243,-0.0013351761562834098,-0.001708888302236347,0.0007714896240818945,0.005166256519882346,-0.047041697362436956,-0.029502244045591243
-0.001745329238474369,0.001745329238474369,-0.001745329238474369,-1.3369107325071916,-9.490699374118698,-1.175729196985191,-0.0009113950276862156,0.0016312735188530668,-0.0023750931502048585,0.11296992518139087,0.09576538492322102,-0.028362858352959243,-0.0013351764660500742,3.644093632257281e-05,0.0007714885283684306,0.025178008909891636,0.009281785691637161,-0.036185786472330596
-0.003490658476948738,0.001745329238474369,-0.003490658476948738,-1.351724377902269,-9.480823650538364,-1.1707913351950243,-0.0009113950276862156,0.0016312735188530668,-0.0023750931502048585,0.11296992518139087,0.09576538492322102,-0.028362858352959243,-0.0030805055347630887,3.6439530663765095e-05,-0.0009738408797759304,0.010360741383456986,0.019159427835090025,-0.03125968448723663
-0.001745329238474369,0.0,-0.001745329238474369,-1.3710862517842508,-9.491422240236465,-1.1669913530349731,-0.0009113950276862156,0.0016312735188530668,-0.0023750931502048585,0.11296992518139087,0.09576538492322102,-0.028362858352959243,-0.0012528917900218495,-0.0012844634090397765,0.00020274892558520352,0.016804217172220016,0.04234925654297336,-0.03096256419989445
-0.001745329238474369,0.0,-0.001745329238474369,-1.4056381842057653,-9.57039794862456,-1.1669913530349731,-0.0009113950276862156,0.0016312735188530668,-0.0023750931502048585,0.11296992518139087,0.09576538492322102,-0.028362858352959243,-0.0011659340284789791,-0.0008359332720059663,-0.00039829419965421427,0.009538394046007257,-0.0009214924185529666,-0.034663411423198676
-0.001745329238474369,0.0,0.0,-1.4281572187197102,-9.621697876901992,-1.1657867905712647,-0.0009113950276862156,0.0016312735188530668,-0.0023750931502048585,0.11296992518139087,0.09576538492322102,-0.028362858352959243,-0.0011659322899747267,-0.0008359325470081641,0.0013470350382544533,-0.012953552118521386,-0.052224437825784446,-0.03346993093145838
-0.001745329238474369,0.0,0.0,-1.41334992306671,-9.587147660375635,-1.1608510453532142,-0.0009113950276862156,0.0016312735188530668,-0.0023750931502048585,0.11296992518139087,0.09576538492322102,-0.028362858352959243,-0.0011659322899370546,-0.0008359325466013635,0.001347035038559191,0.0018808215405875638,-0.01767723735942385,-0.028545263517506
0.0,0.0,0.0,-1.3972644844080777,-9.543680919656179,-1.1584563245766917,-0.0009113950276862156,0.0016312735188530668,-0.0023750931502048585,0.11296992518139087,0.09576538492322102,-0.028362858352959243,0.002526480401988776,-0.0009234366872879947,0.0020705273180516123,0.009780104042852723,-0.010314560494720059,-0.022049866994071958
-0.001745329238474369,0.0,0.0,-1.3775092499990214,-9.47453759922448,-1.1633951331789556,-0.0009113950276862156,0.0016312735188530668,-0.0023750931502048585,0.11296992518139087,0.09576538492322102,-0.028362858352959243,0.0027804429185807216,-0.001013288015685512,0.002813419974716033,0.021111163218522497,0.021754072473295118,-0.022730541101227172
