angular_velocity_x,angular_velocity_y,angular_velocity_z,linear_acceleration_x,linear_acceleration_y,linear_acceleration_z,fake_gyro_bias_x,fake_gyro_bias_y,fake_gyro_bias_z,fake_acc_bias_x,fake_acc_bias_y,fake_acc_bias_z,fake_gyro_noise_x,gyro_noise_y,gyro_noise_z,fake_acc_noise_x,fake_acc_noise_y,fake_acc_noise_z
-0.006283185307179587,0.02024581932313422,0.07819075048934597,8.989429166666666,-0.057205458333333334,-3.8164212916666664,-0.0018061069847893961,0.020939628389234327,0.07687705090744797,-0.02263898863383792,0.12333651052700809,0.06319543287778857,0.0,0.0,0.0,0.0,0.0,0.0
-0.0013962634015954637,0.01884955592153876,0.08237954069413235,9.030290208333332,-0.008172208333333333,-3.77556025,-0.0018061069847893961,0.020939628389234327,0.07687705090744797,-0.02263898863383792,0.12333651052700809,0.06319543287778857,0.0,0.0,0.0,0.0,0.0,0.0
-0.005585053606381855,0.021642082724729686,0.07958701389094143,9.022118,-0.04903325,-3.7919046666666665,-0.0018061069847893961,0.020939628389234327,0.07687705090744797,-0.02263898863383792,0.12333651052700809,0.06319543287778857,0.0,0.0,0.0,0.0,0.0,0.0
0.0006981317007977319,0.01815142422074103,0.08028514559173915,9.038462416666666,-0.04903325,-3.800076875,-0.0018061069847893961,0.020939628389234327,0.07687705090744797,-0.02263898863383792,0.12333651052700809,0.06319543287778857,0.0,0.0,0.0,0.0,0.0,0.0
-0.0020943951023931952,0.023038346126325153,0.07819075048934597,9.022118,-0.032688833333333334,-3.77556025,-0.0018061069847893961,0.020939628389234327,0.07687705090744797,-0.02263898863383792,0.12333651052700809,0.06319543287778857,0.0,0.0,0.0,0.0,0.0,0.0
-0.0006981317007977319,0.019547687622336492,0.07609635538695278,9.022118,-0.04086104166666667,-3.8164212916666664,-0.0018061069847893961,0.020939628389234327,0.07687705090744797,-0.02263898863383792,0.12333651052700809,0.06319543287778857,0.0,0.0,0.0,0.0,0.0,0.0
-0.0020943951023931952,0.023038346126325153,0.0747000919853573,9.136528916666666,-0.008172208333333333,-3.8164212916666664,-0.0018061069847893961,0.020939628389234327,0.07687705090744797,-0.02263898863383792,0.12333651052700809,0.06319543287778857,0.0,0.0,0.0,0.0,0.0,0.0
-0.0027925268031909274,0.020943951023931952,0.07958701389094143,9.013945791666666,-0.04903325,-3.800076875,-0.0018061069847893961,0.020939628389234327,0.07687705090744797,-0.02263898863383792,0.12333651052700809,0.06319543287778857,0.0,0.0,0.0,0.0,0.0,0.0
-0.004886921905584123,0.021642082724729686,0.07539822368615504,9.046634625,-0.016344416666666667,-3.7919046666666665,-0.0018061069847893961,0.020939628389234327,0.07687705090744797,-0.02263898863383792,0.12333651052700809,0.06319543287778857,0.0,0.0,0.0,0.0,0.0,0.0
0.003490658503988659,0.019547687622336492,0.07400196028455958,8.907707083333333,-0.057205458333333334,-3.7673880416666665,-0.0018061069847893961,0.020939628389234327,0.07687705090744797,-0.02263898863383792,0.12333651052700809,0.06319543287778857,0.0,0.0,0.0,0.0,0.0,0.0
-0.0006981317007977319,0.01884955592153876,0.07400196028455958,9.022118,-0.024516625,-3.7837324583333327,-0.0018061069847893961,0.020939628389234327,0.07687705090744797,-0.02263898863383792,0.12333651052700809,0.06319543287778857,0.0,0.0,0.0,0.0,0.0,0.0
-0.0027925268031909274,0.02024581932313422,0.0767944870877505,9.005773583333333,-0.07354987499999999,-3.800076875,-0.0018061069847893961,0.020939628389234327,0.07687705090744797,-0.02263898863383792,0.12333651052700809,0.06319543287778857,0.0,0.0,0.0,0.0,0.0,0.0
-0.006981317007977318,0.02234021442552742,0.07609635538695278,9.128356708333332,-0.008172208333333333,-3.8082490833333327,-0.0018061069847893961,0.020939628389234327,0.07687705090744797,-0.02263898863383792,0.12333651052700809,0.06319543287778857,0.0,0.0,0.0,0.0,0.0,0.0
-0.003490658503988659,0.02234021442552742,0.07819075048934597,8.97308475,-0.08172208333333333,-3.7673880416666665,-0.0018061069847893961,0.020939628389234327,0.07687705090744797,-0.02263898863383792,0.12333651052700809,0.06319543287778857,0.0,0.0,0.0,0.0,0.0,0.0
0.0027925268031909274,0.02234021442552742,0.07330382858376185,9.087495666666666,-0.016344416666666667,-3.8164212916666664,-0.0018061069847893961,0.020939628389234327,0.07687705090744797,-0.02263898863383792,0.12333651052700809,0.06319543287778857,0.0,0.0,0.0,0.0,0.0,0.0
0.0013962634015954637,0.02024581932313422,0.08098327729253688,8.964912541666667,-0.04086104166666667,-3.7837324583333327,-0.0018061069847893961,0.020939628389234327,0.07687705090744797,-0.02263898863383792,0.12333651052700809,0.06319543287778857,0.0,0.0,0.0,0.0,0.0,0.0
-0.0006981317007977319,0.017453292519943295,0.08028514559173915,9.046634625,0.0,-3.77556025,-0.0018061069847893961,0.020939628389234327,0.07687705090744797,-0.02263898863383792,0.12333651052700809,0.06319543287778857,0.0,0.0,0.0,0.0,0.0,0.0
0.0,0.01884955592153876,0.07888888219014369,8.932223708333334,-0.057205458333333334,-3.77556025,-0.0018061069847893961,0.020939628389234327,0.07687705090744797,-0.02263898863383792,0.12333651052700809,0.06319543287778857,0.0,0.0,0.0,0.0,0.0,0.0
-0.0013962634015954637,0.019547687622336492,0.07888888219014369,9.087495666666666,0.016344416666666667,-3.8164212916666664,-0.0018061069847893961,0.020939628389234327,0.07687705090744797,-0.02263898863383792,0.12333651052700809,0.06319543287778857,0.0,0.0,0.0,0.0,0.0,0.0
-0.0013962634015954637,0.020943951023931952,0.07958701389094143,8.964912541666667,0.016344416666666667,-3.7919046666666665,-0.0018061069847893961,0.020939628389234327,0.07687705090744797,-0.02263898863383792,0.12333651052700809,0.06319543287778857,0.0,0.0,0.0,0.0,0.0,0.0
-0.004886921905584123,0.01815142422074103,0.07749261878854824,9.103840083333333,-0.008172208333333333,-3.800076875,-0.0018061069847893961,0.020939628389234327,0.07687705090744797,-0.02263898863383792,0.12333651052700809,0.06319543287778857,-0.0011845622192214907,-0.0018238668879870731,0.00038742159104383366,0.061600274925497515,0.03014726316766693,-0.016878362609386487
-0.0020943951023931952,0.021642082724729686,0.0767944870877505,8.981256958333333,-0.06537766666666667,-3.7673880416666665,-0.0018061069847893961,0.020939628389234327,0.07687705090744797,-0.02263898863383792,0.12333651052700809,0.06319543287778857,-0.00044737191602190244,0.0027823199759021405,0.00026155390129196026,-0.028110417424627027,-0.014772167501292231,0.007322911993436502
-0.0020943951023931952,0.016057029118347832,0.07609635538695278,9.038462416666666,-0.032688833333333334,-3.7837324583333327,-0.0018061069847893961,0.020939628389234327,0.07687705090744797,-0.02263898863383792,0.12333651052700809,0.06319543287778857,-0.00028573266755498185,-0.0017217887346674611,-0.0022490162968356047,0.020601458799077876,0.013712574729255755,0.01562955092279571
-0.0013962634015954637,0.019547687622336492,0.08028514559173915,8.997601374999999,-0.057205458333333334,-3.8164212916666664,-0.0018061069847893961,0.020939628389234327,0.07687705090744797,-0.02263898863383792,0.12333651052700809,0.06319543287778857,0.001067161006482859,-0.0004118456063801168,0.003432036397156295,-0.020020145660542877,-0.022981067974770956,-0.0007147821004700744
-0.0027925268031909274,0.02024581932313422,0.07400196028455958,9.038462416666666,-0.008172208333333333,-3.8164212916666664,-0.0018061069847893961,0.020939628389234327,0.07687705090744797,-0.02263898863383792,0.12333651052700809,0.06319543287778857,-0.00035166581096113,-0.0016269083173099635,-0.0016091241346429996,0.01688207794750446,0.00565929017808007,-0.000606564900891386
-0.0027925268031909274,0.023736477827122883,0.0767944870877505,9.005773583333333,-0.016344416666666667,-3.8164212916666664,-0.0018061069847893961,0.020939628389234327,0.07687705090744797,-0.02263898863383792,0.12333651052700809,0.06319543287778857,-0.0003336639872394179,0.0007253268893577023,-0.0011723613773243502,-0.02008698136399406,0.0014495341040716338,-0.000595933454819402
-0.0020943951023931952,0.02234021442552742,0.07958701389094143,9.046634625,-0.016344416666666667,-3.8164212916666664,-0.0018061069847893961,0.020939628389234327,0.07687705090744797,-0.02263898863383792,0.12333651052700809,0.06319543287778857,0.0012558000295055376,-0.0008528361975351686,0.00026876570600579876,0.0657587858739866,0.001467893295276759,-0.016960452341623956
-0.0041887902047863905,0.024434609527920613,0.07888888219014369,8.915879291666666,-0.016344416666666667,-3.7837324583333327,-0.0018061069847893961,0.020939628389234327,0.07687705090744797,-0.02263898863383792,0.12333651052700809,0.06319543287778857,-0.0018981053155932009,0.002938632732039545,-4.109018660876869e-05,0.00040548783411401506,0.026099221702008873,-0.0005420623606205472
-0.0006981317007977319,0.01815142422074103,0.07888888219014369,8.915879291666666,-0.06537766666666667,-3.7837324583333327,-0.0018061069847893961,0.020939628389234327,0.07687705090744797,-0.02263898863383792,0.12333651052700809,0.06319543287778857,-4.8563765798859685e-05,-0.00012244029412588592,0.0012892991153296365,-0.03233584065859409,-0.006675383270535853,-0.0009415134888060777
-0.0006981317007977319,0.01815142422074103,0.07609635538695278,8.981256958333333,-0.04903325,-3.7837324583333327,-0.0018061069847893961,0.020939628389234327,0.07687705090744797,-0.02263898863383792,0.12333651052700809,0.06319543287778857,0.00021671728135510822,0.0024030423609620335,0.0008251128911583502,0.0038807559830792314,-0.057285435239883116,-0.04208514399873905
-0.0006981317007977319,0.013264502315156905,0.0747000919853573,9.022118,-0.06537766666666667,-3.7919046666666665,-0.0018061069847893961,0.020939628389234327,0.07687705090744797,-0.02263898863383792,0.12333651052700809,0.06319543287778857,0.00184532148830746,-0.002196934673689363,-0.0014051402204951534,-0.024186791029305738,-0.0025098275187290403,-0.0007462061859644175
-0.004886921905584123,0.01815142422074103,0.07749261878854824,9.07115125,-0.057205458333333334,-3.7919046666666665,-0.0018061069847893961,0.020939628389234327,0.07687705090744797,-0.02263898863383792,0.12333651052700809,0.06319543287778857,-0.0014321419060937068,0.0007312344351214068,-0.00040373127007991443,0.04124264559128469,-0.002671829428717044,0.011545006979351456
-0.0013962634015954637,0.016057029118347832,0.07819075048934597,8.989429166666666,-0.04903325,-3.8164212916666664,-0.0018061069847893961,0.020939628389234327,0.07687705090744797,-0.02263898863383792,0.12333651052700809,0.06319543287778857,-0.0007666856693019008,-0.0009691823092882094,0.0003649438449505686,-0.0366057135973719,-0.023066485748348436,0.007390301008021086
0.0,0.01815142422074103,0.07819075048934597,9.062979041666667,0.0,-3.832765708333333,-0.0018061069847893961,0.020939628389234327,0.07687705090744797,-0.02263898863383792,0.12333651052700809,0.06319543287778857,0.0010386156151892237,-0.0008778341968834665,-0.0013221207268075332,0.02493819667009321,0.03416208729736206,-0.017042039108868735
-0.0020943951023931952,0.02024581932313422,0.08028514559173915,9.013945791666666,-0.06537766666666667,-3.800076875,-0.0018061069847893961,0.020939628389234327,0.07687705090744797,-0.02263898863383792,0.12333651052700809,0.06319543287778857,-0.0004676778957441409,-0.002375269288660195,0.0032717096131595976,-0.0035974501014488297,-0.027009016329934295,-0.004798240385549022
-0.0013962634015954637,0.024434609527920613,0.07330382858376185,9.022118,-0.008172208333333333,-3.7919046666666665,-0.0018061069847893961,0.020939628389234327,0.07687705090744797,-0.02263898863383792,0.12333651052700809,0.06319543287778857,0.000777005339581917,0.0018845578117132565,-0.002913105035728851,0.03295965708562105,0.034189725003942545,-0.016913718675213747
-0.0027925268031909274,0.020943951023931952,0.07958701389094143,8.956740333333332,-0.07354987499999999,-3.759215833333333,-0.0018061069847893961,0.020939628389234327,0.07687705090744797,-0.02263898863383792,0.12333651052700809,0.06319543287778857,0.000969368996899533,0.0011763040353244493,0.0020834078108310687,-0.032234576384180674,-0.0025491785383577057,0.015689425617065683
-0.004886921905584123,0.01884955592153876,0.07539822368615504,9.022118,-0.06537766666666667,-3.7919046666666665,-0.0018061069847893961,0.020939628389234327,0.07687705090744797,-0.02263898863383792,0.12333651052700809,0.06319543287778857,-0.0016134549210359622,0.002124843500710264,-0.0002462994058809846,0.03700393363104729,0.005761097375219062,-0.021217619777208877
-0.0013962634015954637,0.014660765716752367,0.07609635538695278,8.948568125,-0.07354987499999999,-3.751043625,-0.0018061069847893961,0.020939628389234327,0.07687705090744797,-0.02263898863383792,0.12333651052700809,0.06319543287778857,-0.0010765789275813244,-0.0031789249875793617,-0.000653799419008222,-0.07728076332379696,-0.023186072951323515,0.03193769515011478
0.0006981317007977319,0.020943951023931952,0.07749261878854824,9.103840083333333,-0.024516625,-3.8164212916666664,-0.0018061069847893961,0.020939628389234327,0.07687705090744797,-0.02263898863383792,0.12333651052700809,0.06319543287778857,-0.0014825358021607119,-0.000516272104588788,-0.001815687511176252,0.09813291569921102,-0.09398778244616522,-0.09370750391474332
0.003490658503988659,0.021642082724729686,0.08098327729253688,8.989429166666666,-0.04903325,-3.77556025,-0.0018061069847893961,0.020939628389234327,0.07687705090744797,-0.02263898863383792,0.12333651052700809,0.06319543287778857,0.0006173648984458492,0.0002687360065610382,0.0027234837563905614,-0.05258402460399754,-0.010795467026638918,0.011750221995320425
0.0020943951023931952,0.020943951023931952,0.07539822368615504,9.095667875,-0.024516625,-3.800076875,-0.0018061069847893961,0.020939628389234327,0.07687705090744797,-0.02263898863383792,0.12333651052700809,0.06319543287778857,0.001491185395480299,0.0008084012543112507,-6.557357219954357e-05,0.08209757484753893,-0.006579482721111668,-0.004942099464009538
0.0,0.019547687622336492,0.07539822368615504,8.932223708333334,-0.008172208333333333,-3.7919046666666665,-0.0018061069847893961,0.020939628389234327,0.07687705090744797,-0.02263898863383792,0.12333651052700809,0.06319543287778857,0.0013928546564193035,0.0030980080141651788,1.4597984258477248e-05,-0.061027279054309325,0.009687190844861427,0.007573311670485472
-0.003490658503988659,0.013264502315156905,0.07539822368615504,9.054806833333332,-0.024516625,-3.8082490833333327,-0.0018061069847893961,0.020939628389234327,0.07687705090744797,-0.02263898863383792,0.12333651052700809,0.06319543287778857,-0.0007879900715555685,-0.004276779415485216,-0.0010512483335740795,0.03715493106709528,0.03830474330647174,-0.008999104987958174
-0.0020943951023931952,0.02234021442552742,0.07749261878854824,8.981256958333333,-0.0980665,-3.7919046666666665,-0.0018061069847893961,0.020939628389234327,0.07687705090744797,-0.02263898863383792,0.12333651052700809,0.06319543287778857,0.0019552148222003476,0.002002359699177639,0.0008210580492043496,-0.04040693630549311,-0.0024972809686272662,0.0033757831367169436
-0.005585053606381855,0.01815142422074103,0.07609635538695278,9.062979041666667,-0.08989429166666667,-3.800076875,-0.0018061069847893961,0.020939628389234327,0.07687705090744797,-0.02263898863383792,0.12333651052700809,0.06319543287778857,-0.002141924921848947,-0.002994544833740388,-0.0016390511889242047,0.04516578976752699,-0.010787902113091162,0.0033183078650325212
-0.0013962634015954637,0.023736477827122883,0.07958701389094143,8.97308475,-0.06537766666666667,-3.8082490833333327,-0.0018061069847893961,0.020939628389234327,0.07687705090744797,-0.02263898863383792,0.12333651052700809,0.06319543287778857,-0.0004887775820118931,3.6848154406743776e-05,0.00036602695559531277,-0.04857793534228853,-0.01486290100438372,-0.0046942452580866064
0.0,0.023736477827122883,0.07819075048934597,9.07115125,-0.032688833333333334,-3.800076875,-0.0018061069847893961,0.020939628389234327,0.07687705090744797,-0.02263898863383792,0.12333651052700809,0.06319543287778857,0.00023967229630664767,0.0013985774927227689,0.0006927150935307267,0.07798495037737252,0.017757296732627784,-0.029180687265633498
-0.0006981317007977319,0.020943951023931952,0.07749261878854824,8.915879291666666,-0.06537766666666667,-3.742871416666666,-0.0018061069847893961,0.020939628389234327,0.07687705090744797,-0.02263898863383792,0.12333651052700809,0.06319543287778857,0.00030719573318645785,0.0023429618225035637,0.0009683377384393813,-0.09353126436247318,-0.006621262217957361,0.023763137302220346
-0.0013962634015954637,0.016755160819145562,0.07539822368615504,9.103840083333333,-0.04903325,-3.7919046666666665,-0.0018061069847893961,0.020939628389234327,0.07687705090744797,-0.02263898863383792,0.12333651052700809,0.06319543287778857,-0.00045942467012304055,-0.0026182601468097842,-0.0020348890953447965,0.13518754051224677,-0.12233920788765008,-0.09383891491758105
-0.0006981317007977319,0.021642082724729686,0.07888888219014369,8.940395916666665,-0.06537766666666667,-3.7837324583333327,-0.0018061069847893961,0.020939628389234327,0.07687705090744797,-0.02263898863383792,0.12333651052700809,0.06319543287778857,-0.000765876592173568,0.0016513596629058108,0.0009980434450255935,-0.0405612506231665,-0.03953583609413523,0.007561976053835701
0.0013962634015954637,0.01815142422074103,0.07749261878854824,9.022118,0.016344416666666667,-3.800076875,-0.0018061069847893961,0.020939628389234327,0.07687705090744797,-0.02263898863383792,0.12333651052700809,0.06319543287778857,0.0028706189927857053,-0.001715685147537064,-0.00045134477397602824,0.004600824474697133,0.02607552722173884,0.0034496841858590067
-0.004886921905584123,0.021642082724729686,0.07819075048934597,9.013945791666666,-0.032688833333333334,-3.8082490833333327,-0.0018061069847893961,0.020939628389234327,0.07687705090744797,-0.02263898863383792,0.12333651052700809,0.06319543287778857,-0.0015693865863484408,0.0026766359033625797,-0.0015236813230431296,-0.012051921486147435,0.009695689301086384,-0.004886740303712583
-0.0013962634015954637,0.016057029118347832,0.08098327729253688,9.038462416666666,-0.04903325,-3.800076875,-0.0018061069847893961,0.020939628389234327,0.07687705090744797,-0.02263898863383792,0.12333651052700809,0.06319543287778857,0.0004545307347542379,-0.0015854753724553732,0.0009563778273435223,0.01265286241060013,0.029978291618605712,-0.02111512604143208
-0.0020943951023931952,0.019547687622336492,0.07958701389094143,9.013945791666666,-0.10623870833333333,-3.759215833333333,-0.0018061069847893961,0.020939628389234327,0.07687705090744797,-0.02263898863383792,0.12333651052700809,0.06319543287778857,0.0007273848997824309,0.0006831584360675699,-0.0019638964841945934,-0.015993018130354017,-0.03933335711004651,0.023764332273313437
-0.003490658503988659,0.01815142422074103,0.08307767239493008,9.046634625,-0.024516625,-3.8082490833333327,-0.0018061069847893961,0.020939628389234327,0.07687705090744797,-0.02263898863383792,0.12333651052700809,0.06319543287778857,-0.0013417532293474308,-0.0024030558712489812,0.002136235791289051,0.03722101913225805,0.005533949211958682,0.01155103794341781
-0.0013962634015954637,0.023038346126325153,0.07888888219014369,8.97308475,-0.032688833333333334,-3.832765708333333,-0.0018061069847893961,0.020939628389234327,0.07687705090744797,-0.02263898863383792,0.12333651052700809,0.06319543287778857,0.00010847407420036754,-0.0004181070836309118,-0.0005755551907186058,-0.044659860821623876,-0.01094865860134876,-0.0005623236192500248
-0.0013962634015954637,0.023736477827122883,0.08028514559173915,9.062979041666667,-0.008172208333333333,-3.832765708333333,-0.0018061069847893961,0.020939628389234327,0.07687705090744797,-0.02263898863383792,0.12333651052700809,0.06319543287778857,0.002814029104768749,-0.0010588126412149812,0.0008811955227210674,0.04955932012722074,0.013747063770665396,-0.02106891094473675
-0.006981317007977318,0.02583087292951608,0.07819075048934597,8.964912541666667,-0.032688833333333334,-3.7919046666666665,-0.0018061069847893961,0.020939628389234327,0.07687705090744797,-0.02263898863383792,0.12333651052700809,0.06319543287778857,-0.003141660301749057,0.0056617620269769735,-0.0014013496630395559,-0.0038641188588813924,0.009727336375612355,-0.00477470938270079
-0.0006981317007977319,0.014660765716752367,0.08098327729253688,8.97308475,-0.04903325,-3.7837324583333327,-0.0018061069847893961,0.020939628389234327,0.07687705090744797,-0.02263898863383792,0.12333651052700809,0.06319543287778857,0.0012056695722761997,-0.0034481025168534483,0.001832682533673211,-0.036323741445147203,-0.006734067906812303,-0.0006566825517924066
-0.0027925268031909274,0.021642082724729686,0.07749261878854824,9.046634625,-0.032688833333333334,-3.7837324583333327,-0.0018061069847893961,0.020939628389234327,0.07687705090744797,-0.02263898863383792,0.12333651052700809,0.06319543287778857,-0.0005499002075000822,0.003664041299296178,-0.0012000444088860207,0.024876694462476284,0.017867034540298418,0.003226133736035749
-0.0020943951023931952,0.013962634015954637,0.07958701389094143,8.997601374999999,-0.06537766666666667,-3.7919046666666665,-0.0018061069847893961,0.020939628389234327,0.07687705090744797,-0.02263898863383792,0.12333651052700809,0.06319543287778857,-1.9517534093839414e-06,-0.001899998736742316,0.0018800844341204602,-0.020142687891563548,0.0016459041227813106,0.00337849860536641
-0.0020943951023931952,0.01815142422074103,0.07539822368615504,9.038462416666666,-0.06537766666666667,-3.800076875,-0.0018061069847893961,0.020939628389234327,0.07687705090744797,-0.02263898863383792,0.12333651052700809,0.06319543287778857,0.0001589686299083135,-0.0004295139422762821,-0.0007366582076375863,0.008493394470252422,0.0014439513715925453,0.007353195229749468
-0.0020943951023931952,0.01884955592153876,0.07749261878854824,9.022118,-0.06537766666666667,-3.8164212916666664,-0.0018061069847893961,0.020939628389234327,0.07687705090744797,-0.02263898863383792,0.12333651052700809,0.06319543287778857,0.0009860582932339455,-0.002643768790690939,-4.352308523228314e-05,-0.019997469730300612,-0.006648689476971094,-0.0004535911259632366
-0.0041887902047863905,0.024434609527920613,0.07749261878854824,9.062979041666667,-0.04903325,-3.8164212916666664,-0.0018061069847893961,0.020939628389234327,0.07687705090744797,-0.02263898863383792,0.12333651052700809,0.06319543287778857,-0.0004719766600087028,-0.0003690688936929477,-0.001165883149334325,0.03722730211043405,0.0015299139232517536,-0.008704142535337802
-0.003490658503988659,0.025132741228718346,0.07958701389094143,8.989429166666666,-0.04903325,-3.800076875,-0.0018061069847893961,0.020939628389234327,0.07687705090744797,-0.02263898863383792,0.12333651052700809,0.06319543287778857,0.0006047911658995921,0.0019150024379510106,0.0007617300755757001,-0.007833305834291744,-0.006621001012022376,-0.000708386052373329
-0.004886921905584123,0.020943951023931952,0.07819075048934597,9.005773583333333,-0.032688833333333334,-3.800076875,-0.0018061069847893961,0.020939628389234327,0.07687705090744797,-0.02263898863383792,0.12333651052700809,0.06319543287778857,-0.000909984291753426,0.0023198381642813544,0.00041657608437036724,0.020799748767106656,0.01374453720239941,-0.008761087215919412
-0.0027925268031909274,0.016057029118347832,0.07749261878854824,8.964912541666667,-0.057205458333333334,-3.7837324583333327,-0.0018061069847893961,0.020939628389234327,0.07687705090744797,-0.02263898863383792,0.12333651052700809,0.06319543287778857,0.001835184702004683,-0.0022612075251463707,0.001016972147652149,-0.04871900247063159,-0.0025419005805435123,0.01962817450684948
-0.006283185307179587,0.020943951023931952,0.07539822368615504,9.062979041666667,-0.04903325,-3.8245934999999998,-0.0018061069847893961,0.020939628389234327,0.07687705090744797,-0.02263898863383792,0.12333651052700809,0.06319543287778857,-0.0004925015764017998,0.0006339819702377484,-0.0016297390111855463,0.06574162648228886,-0.0025553845667768095,-0.025318880837066477
-0.005585053606381855,0.019547687622336492,0.07888888219014369,8.932223708333334,-0.04086104166666667,-3.77556025,-0.0018061069847893961,0.020939628389234327,0.07687705090744797,-0.02263898863383792,0.12333651052700809,0.06319543287778857,-0.0007253255990190999,0.0007057625325437377,-0.0008785946083852351,0.0669726878364331,-0.3530551167110198,-0.21863827481978984
-0.0041887902047863905,0.01815142422074103,0.08098327729253688,9.128356708333332,-0.06537766666666667,-3.8409379166666664,-0.0018061069847893961,0.020939628389234327,0.07687705090744797,-0.02263898863383792,0.12333651052700809,0.06319543287778857,-0.002238965829415937,-0.0023075291580520125,0.0003449492597609735,0.061703040581835795,0.0014798959186844934,-0.01704267334824813
0.0006981317007977319,0.02234021442552742,0.08028514559173915,9.005773583333333,-0.06537766666666667,-3.8082490833333327,-0.0018061069847893961,0.020939628389234327,0.07687705090744797,-0.02263898863383792,0.12333651052700809,0.06319543287778857,-9.575834611098808e-05,0.0005972113638932594,0.001461544943599835,-0.024115686238639435,-0.01089309319693,-0.008868383159433495
0.0006981317007977319,0.021642082724729686,0.0767944870877505,9.054806833333332,-0.04086104166666667,-3.7919046666666665,-0.0018061069847893961,0.020939628389234327,0.07687705090744797,-0.02263898863383792,0.12333651052700809,0.06319543287778857,0.00015509280004654885,0.0022435645519286325,0.001598274609550519,0.06166900130183683,0.042467399490029784,-0.021135781354279265
0.0006981317007977319,0.016755160819145562,0.07400196028455958,8.932223708333334,-0.122583125,-3.751043625,-0.0018061069847893961,0.020939628389234327,0.07687705090744797,-0.02263898863383792,0.12333651052700809,0.06319543287778857,0.000609505147057612,0.0009183590918447472,-0.0010608482775296701,-0.04453052996220681,-0.018913191893761422,0.003336120781447547
-0.0006981317007977319,0.0153588974175501,0.07609635538695278,9.022118,-0.08172208333333333,-3.759215833333333,-0.0018061069847893961,0.020939628389234327,0.07687705090744797,-0.02263898863383792,0.12333651052700809,0.06319543287778857,0.0007722805257986154,-0.002021299899536173,-0.0020412187835106856,0.037111761426459826,-0.03522211169174625,0.0033960625997956537
-0.0020943951023931952,0.01884955592153876,0.08028514559173915,8.948568125,-0.008172208333333333,-3.7673880416666665,-0.0018061069847893961,0.020939628389234327,0.07687705090744797,-0.02263898863383792,0.12333651052700809,0.06319543287778857,-0.001457793323209972,0.0024979299722588076,0.0011847932223797053,-0.07741153796222608,-0.0026501451341502083,0.023549473523101713
0.0006981317007977319,0.013962634015954637,0.07819075048934597,9.103840083333333,0.0,-3.8164212916666664,-0.0018061069847893961,0.020939628389234327,0.07687705090744797,-0.02263898863383792,0.12333651052700809,0.06319543287778857,0.0033545906434221456,-0.0029672325519099394,-0.0010753375309900245,0.045348283671620755,0.03001829192744994,-0.01288021140128078
-0.005585053606381855,0.02024581932313422,0.08028514559173915,9.013945791666666,-0.057205458333333334,-3.7919046666666665,-0.0018061069847893961,0.020939628389234327,0.07687705090744797,-0.02263898863383792,0.12333651052700809,0.06319543287778857,-0.0016314107845199152,-0.0020301682124233404,-0.0005518458156928493,-0.06924635817597169,-0.018908153340721264,0.015609007193302032
-0.0027925268031909274,0.024434609527920613,0.08098327729253688,9.152873333333332,-0.016344416666666667,-3.8245934999999998,-0.0018061069847893961,0.020939628389234327,0.07687705090744797,-0.02263898863383792,0.12333651052700809,0.06319543287778857,0.0007859623534932087,-0.0024431860414685543,-0.00015906409314107482,0.11080275360749693,0.029941682829708105,-0.024945203227003578
-0.0041887902047863905,0.028623399732707,0.08098327729253688,8.932223708333334,-0.07354987499999999,-3.77556025,-0.0018061069847893961,0.020939628389234327,0.07687705090744797,-0.02263898863383792,0.12333651052700809,0.06319543287778857,-0.0018526084082991971,0.004777079127612958,0.0005652701924920989,0.07133196471217253,-0.2254795827423181,-0.16410807460921562
0.0,0.019547687622336492,0.08028514559173915,8.997601374999999,-0.04086104166666667,-3.742871416666666,-0.0018061069847893961,0.020939628389234327,0.07687705090744797,-0.02263898863383792,0.12333651052700809,0.06319543287778857,0.0013103267659665485,-0.001290829941009862,0.0015717374445967313,-0.0037477021005886983,0.0015667199330624563,0.007526307825627879
-0.0027925268031909274,0.02234021442552742,0.07749261878854824,9.005773583333333,-0.04086104166666667,-3.759215833333333,-0.0018061069847893961,0.020939628389234327,0.07687705090744797,-0.02263898863383792,0.12333651052700809,0.06319543287778857,-1.9200335533565453e-05,0.0031941836550058093,-0.0004361869091711368,-0.024022532583942033,0.017937155889418764,0.007510598207146766
-0.0027925268031909274,0.0153588974175501,0.07819075048934597,9.054806833333332,-0.07354987499999999,-3.77556025,-0.0018061069847893961,0.020939628389234327,0.07687705090744797,-0.02263898863383792,0.12333651052700809,0.06319543287778857,-0.0011737129178574243,-0.0022888443867795927,0.000790101238819477,-0.003777529758220944,-0.019154249729487025,0.02788867850945918
-0.0006981317007977319,0.02024581932313422,0.0767944870877505,9.062979041666667,-0.032688833333333334,-3.832765708333333,-0.0018061069847893961,0.020939628389234327,0.07687705090744797,-0.02263898863383792,0.12333651052700809,0.06319543287778857,0.0008716021732249295,0.0005778915879283221,-0.0012888413275063584,0.00041593823015267646,-0.03927350690234251,-0.02109449398397319
-0.0020943951023931952,0.01884955592153876,0.07958701389094143,9.062979041666667,0.04903325,-3.7919046666666665,-0.0018061069847893961,0.020939628389234327,0.07687705090744797,-0.02263898863383792,0.12333651052700809,0.06319543287778857,0.0008309969983067523,-0.0030506399844892366,0.002588661319190454,0.02901222119321621,0.05057836581296677,-0.0006921117520700622
-0.0041887902047863905,0.025132741228718346,0.07400196028455958,9.005773583333333,-0.04903325,-3.7919046666666665,-0.0018061069847893961,0.020939628389234327,0.07687705090744797,-0.02263898863383792,0.12333651052700809,0.06319543287778857,-0.00043002604310937617,0.0016750024355970587,-0.0026996879769743487,0.0003820164043642976,-0.002533726795005256,-0.004662486796286797
-0.0027925268031909274,0.021642082724729686,0.07958701389094143,9.005773583333333,-0.04086104166666667,-3.7837324583333327,-0.0018061069847893961,0.020939628389234327,0.07687705090744797,-0.02263898863383792,0.12333651052700809,0.06319543287778857,-0.0005799214282516024,-0.0006620458079487076,-0.0008934298582201533,0.045218401933573744,-0.00272680733906087,-0.02516493569813809
-0.0020943951023931952,0.023038346126325153,0.08098327729253688,8.915879291666666,-0.032688833333333334,-3.7346992083333332,-0.0018061069847893961,0.020939628389234327,0.07687705090744797,-0.02263898863383792,0.12333651052700809,0.06319543287778857,-5.979464051522454e-05,0.0045908012245787985,0.0012866027757433224,-0.044543346648411274,0.005654184645117314,0.027748428246543486
-0.0013962634015954637,0.013962634015954637,0.07888888219014369,9.005773583333333,-0.04086104166666667,-3.7919046666666665,-0.0018061069847893961,0.020939628389234327,0.07687705090744797,-0.02263898863383792,0.12333651052700809,0.06319543287778857,-0.0002832472529276347,-0.0012423948944951864,0.001398646111140507,-0.0036378825540548804,0.0015279512900187662,-0.004768563375607148
-0.0013962634015954637,0.016755160819145562,0.07609635538695278,9.013945791666666,-0.04086104166666667,-3.7837324583333327,-0.0018061069847893961,0.020939628389234327,0.07687705090744797,-0.02263898863383792,0.12333651052700809,0.06319543287778857,0.0010215510257020229,-0.0008543319524199762,0.0007310571822302535,0.12378775518125527,-0.21336858355541502,-0.15033216355288423
-0.0027925268031909274,0.017453292519943295,0.0747000919853573,8.997601374999999,-0.04903325,-3.800076875,-0.0018061069847893961,0.020939628389234327,0.07687705090744797,-0.02263898863383792,0.12333651052700809,0.06319543287778857,-0.0018374561334296728,-0.0013194644862746698,-0.0007839074280750255,-0.028313918404973347,-0.002427588354323296,0.011475316272690642
0.0006981317007977319,0.02024581932313422,0.0767944870877505,9.054806833333332,-0.04086104166666667,-3.8245934999999998,-0.0018061069847893961,0.020939628389234327,0.07687705090744797,-0.02263898863383792,0.12333651052700809,0.06319543287778857,-1.478234772594077e-05,0.0030010984663796656,-0.001280828645378204,0.033003604664321125,0.025900556669827268,-0.02506885706982439
0.0006981317007977319,0.014660765716752367,0.07888888219014369,8.989429166666666,-0.08989429166666667,-3.77556025,-0.0018061069847893961,0.020939628389234327,0.07687705090744797,-0.02263898863383792,0.12333651052700809,0.06319543287778857,0.0013319318514876635,-0.004851696598868305,0.0012569113842812233,-0.04868722105152843,-0.01896505498272922,0.007438572550428903
-0.0020943951023931952,0.024434609527920613,0.07609635538695278,9.087495666666666,-0.04903325,-3.7919046666666665,-0.0018061069847893961,0.020939628389234327,0.07687705090744797,-0.02263898863383792,0.12333651052700809,0.06319543287778857,-0.0012203063028697592,0.001163668933066281,-0.00013576088360388048,0.06177670281300447,0.009689005236020917,-0.0007796139683798731
0.0006981317007977319,0.021642082724729686,0.0767944870877505,8.964912541666667,-0.06537766666666667,-3.7919046666666665,-0.0018061069847893961,0.020939628389234327,0.07687705090744797,-0.02263898863383792,0.12333651052700809,0.06319543287778857,0.002030226612702442,-0.0010827454770584465,0.00022357821186057836,-0.011906355728802711,-0.014825054003625649,-0.0168480069711062
-0.003490658503988659,0.023736477827122883,0.07609635538695278,8.989429166666666,-0.032688833333333334,-3.759215833333333,-0.0018061069847893961,0.020939628389234327,0.07687705090744797,-0.02263898863383792,0.12333651052700809,0.06319543287778857,-0.002091788766953045,0.0024227587733119983,-0.001481804242322834,0.020907663031132576,-0.002435818546680934,0.023831875915705885
0.0006981317007977319,0.019547687622336492,0.07888888219014369,8.948568125,-0.024516625,-3.8082490833333327,-0.0018061069847893961,0.020939628389234327,0.07687705090744797,-0.02263898863383792,0.12333651052700809,0.06319543287778857,0.0002740380672543094,-0.000644747861742415,-0.000742720627689596,-0.08152618581282323,0.017730369400349145,0.003338523308395239
0.0,0.02024581932313422,0.08028514559173915,9.112012291666666,-0.057205458333333334,-3.8164212916666664,-0.0018061069847893961,0.020939628389234327,0.07687705090744797,-0.02263898863383792,0.12333651052700809,0.06319543287778857,0.0008148560040814838,3.742967508411562e-05,0.000401239063067285,0.07395261440562344,0.013716937863994923,0.0034900102201504807
-0.0013962634015954637,0.02024581932313422,0.08028514559173915,8.964912541666667,-0.08172208333333333,-3.8245934999999998,-0.0018061069847893961,0.020939628389234327,0.07687705090744797,-0.02263898863383792,0.12333651052700809,0.06319543287778857,-0.0011188424979181489,0.0005312532842877099,0.0009120487782401191,-0.06491208472997902,-0.006751697069855006,0.007375230157606441
0.0006981317007977319,0.019547687622336492,0.07749261878854824,9.095667875,-0.06537766666666667,-3.8409379166666664,-0.0018061069847893961,0.020939628389234327,0.07687705090744797,-0.02263898863383792,0.12333651052700809,0.06319543287778857,0.0016792445213104229,-0.0003276113393744967,0.00029434339077162965,0.23328457378395764,-0.23823161222035893,-0.22039898119174708
-0.0020943951023931952,0.019547687622336492,0.07819075048934597,8.907707083333333,-0.07354987499999999,-3.7673880416666665,-0.0018061069847893961,0.020939628389234327,0.07687705090744797,-0.02263898863383792,0.12333651052700809,0.06319543287778857,-0.0015893889152908526,-0.0014742827907919015,-0.0006174927343397427,-0.056857493218996906,-0.039513465880797745,0.019708728445863685
0.0006981317007977319,0.02234021442552742,0.07888888219014369,9.022118,0.008172208333333333,-3.8082490833333327,-0.0018061069847893961,0.020939628389234327,0.07687705090744797,-0.02263898863383792,0.12333651052700809,0.06319543287778857,0.0015751589008896139,0.002230161104006531,0.0011885063411597356,0.004409088676429731,0.022101482167853338,-0.0007356537674570589
-0.0020943951023931952,0.01815142422074103,0.0767944870877505,9.013945791666666,-0.032688833333333334,-3.8082490833333327,-0.0018061069847893961,0.020939628389234327,0.07687705090744797,-0.02263898863383792,0.12333651052700809,0.06319543287778857,0.00010087247729507531,-0.003014577999652958,-0.0013303648228613636,-0.03628822772294344,-0.031173439509675438,0.015756276341396435
-0.0027925268031909274,0.024434609527920613,0.07888888219014369,9.087495666666666,0.032688833333333334,-3.8409379166666664,-0.0018061069847893961,0.020939628389234327,0.07687705090744797,-0.02263898863383792,0.12333651052700809,0.06319543287778857,-0.00017843916954095706,-0.0005469648168071674,-0.0020041004168658994,0.07401795819759813,0.03820074066476723,-0.02112478703081272
-0.0020943951023931952,0.025132741228718346,0.08307767239493008,8.940395916666665,-0.04086104166666667,-3.800076875,-0.0018061069847893961,0.020939628389234327,0.07687705090744797,-0.02263898863383792,0.12333651052700809,0.06319543287778857,0.0005761426021292029,0.0033745845291841318,0.0022582496967450206,-0.06499974339867366,-0.0067821001765428985,-0.0006397437629184273
-0.003490658503988659,0.01884955592153876,0.07888888219014369,9.07115125,-0.024516625,-3.800076875,-0.0018061069847893961,0.020939628389234327,0.07687705090744797,-0.02263898863383792,0.12333651052700809,0.06319543287778857,0.0008912322817348253,0.000708689483485216,-0.000766362860366651,0.06976399042759161,0.005564815541624043,-0.01712847594248366
-0.004886921905584123,0.017453292519943295,0.08028514559173915,8.932223708333334,-0.032688833333333334,-3.7673880416666665,-0.0018061069847893961,0.020939628389234327,0.07687705090744797,-0.02263898863383792,0.12333651052700809,0.06319543287778857,-0.0025331156743851843,0.00038415689586096785,0.0008200097278775303,-0.07723301068514747,0.0054607316897640566,0.019796795611872933
0.0,0.016755160819145562,0.07888888219014369,9.087495666666666,-0.04086104166666667,-3.8082490833333327,-0.0018061069847893961,0.020939628389234327,0.07687705090744797,-0.02263898863383792,0.12333651052700809,0.06319543287778857,0.0020014697393747915,-0.0017931303871618562,0.0015150430234806872,0.05747731222518777,0.017976620419501245,-0.029289661669549147
-0.0041887902047863905,0.02024581932313422,0.07609635538695278,8.97308475,-0.07354987499999999,-3.751043625,-0.0018061069847893961,0.020939628389234327,0.07687705090744797,-0.02263898863383792,0.12333651052700809,0.06319543287778857,-0.0011095073687512672,0.0011295727893457946,0.000948593266926876,-0.06505258582012181,-0.018858336185719554,0.03606874135440922
-0.0020943951023931952,0.017453292519943295,0.07400196028455958,9.103840083333333,-0.032688833333333334,-3.8245934999999998,-0.0018061069847893961,0.020939628389234327,0.07687705090744797,-0.02263898863383792,0.12333651052700809,0.06319543287778857,-0.0007193268806519898,-0.003396363956257518,5.40851670147413e-05,0.16395083270885596,-0.2171261416307173,-0.17728190020639403
0.0,0.024434609527920613,0.07400196028455958,9.062979041666667,-0.057205458333333334,-3.832765708333333,-0.0018061069847893961,0.020939628389234327,0.07687705090744797,-0.02263898863383792,0.12333651052700809,0.06319543287778857,0.0005133033043928004,0.00017789591570457444,-0.0001143870317934063,-0.003784218174969681,-0.031198366240159144,-0.01275301078311438
-0.0013962634015954637,0.023736477827122883,0.0747000919853573,9.07115125,0.008172208333333333,-3.8082490833333327,-0.0018061069847893961,0.020939628389234327,0.07687705090744797,-0.02263898863383792,0.12333651052700809,0.06319543287778857,6.586310444154728e-05,0.00014391233508812928,-0.0030828520778468384,0.05759790943468487,0.02187872484007477,-0.021102927043724393
-0.0013962634015954637,0.023736477827122883,0.08098327729253688,8.956740333333332,-0.032688833333333334,-3.7673880416666665,-0.0018061069847893961,0.020939628389234327,0.07687705090744797,-0.02263898863383792,0.12333651052700809,0.06319543287778857,0.001274175421107886,0.001978383603674678,0.0001640248299973599,-0.024172277275617732,0.009741571367512183,0.003451112000928574
-0.003490658503988659,0.019547687622336492,0.08028514559173915,9.005773583333333,-0.04903325,-3.77556025,-0.0018061069847893961,0.020939628389234327,0.07687705090744797,-0.02263898863383792,0.12333651052700809,0.06319543287778857,0.0013218400223227677,-0.001953561618061109,0.001750796461943476,0.020936369035975986,-0.006689650966713635,0.011598870492145714
-0.006981317007977318,0.023736477827122883,0.0767944870877505,8.964912541666667,-0.032688833333333334,-3.800076875,-0.0018061069847893961,0.020939628389234327,0.07687705090744797,-0.02263898863383792,0.12333651052700809,0.06319543287778857,-0.0007765335011106082,0.004474206788271599,-0.0008072793918939922,-0.02821537914383698,0.02188877372517759,0.007505786240572372
-0.004886921905584123,0.014660765716752367,0.07888888219014369,9.022118,-0.07354987499999999,-3.8164212916666664,-0.0018061069847893961,0.020939628389234327,0.07687705090744797,-0.02263898863383792,0.12333651052700809,0.06319543287778857,-0.0005137685484600861,-0.0035156175101407018,-0.001407988663505881,-0.04878127804903089,-0.014766813766968818,0.011559704330719367
-0.0041887902047863905,0.021642082724729686,0.08098327729253688,9.1201845,-0.04086104166666667,-3.8409379166666664,-0.0018061069847893961,0.020939628389234327,0.07687705090744797,-0.02263898863383792,0.12333651052700809,0.06319543287778857,-0.0020298627241936013,-0.0007246191031981662,-0.0010392325884893555,0.03721217281857303,-0.01905867962196721,-0.016981984146713744
0.0,0.023038346126325153,0.08307767239493008,9.046634625,0.0,-3.8082490833333327,-0.0018061069847893961,0.020939628389234327,0.07687705090744797,-0.02263898863383792,0.12333651052700809,0.06319543287778857,0.001182172085289748,-0.0016865731939320287,0.0007992758055376176,0.03298356189885762,0.021785742007320173,-0.008848915286300055
-0.0020943951023931952,0.02652900463031381,0.08168140899333462,8.981256958333333,-0.04086104166666667,-3.7919046666666665,-0.0018061069847893961,0.020939628389234327,0.07687705090744797,-0.02263898863383792,0.12333651052700809,0.06319543287778857,-0.001187885644185677,0.002829891058285119,0.0024604647634483257,0.0005092529118851504,-0.014823843306123591,-0.017006392069792
0.0,0.020943951023931952,0.0767944870877505,8.981256958333333,-0.008172208333333333,-3.759215833333333,-0.0018061069847893961,0.020939628389234327,0.07687705090744797,-0.02263898863383792,0.12333651052700809,0.06319543287778857,0.0011827346342322509,0.000863866016720768,0.0018751970196076834,0.18284446064262752,-0.2369295240077197,-0.19258873101435
-0.0020943951023931952,0.01884955592153876,0.07400196028455958,8.940395916666665,-0.016344416666666667,-3.7673880416666665,-0.0018061069847893961,0.020939628389234327,0.07687705090744797,-0.02263898863383792,0.12333651052700809,0.06319543287778857,0.00025174879080834626,0.00348316061276419,-0.001799962216747503,-0.04462879531001284,0.0014733576829122812,0.0197327886649522
-0.0027925268031909274,0.011868238913561441,0.07749261878854824,9.030290208333332,-0.016344416666666667,-3.8082490833333327,-0.0018061069847893961,0.020939628389234327,0.07687705090744797,-0.02263898863383792,0.12333651052700809,0.06319543287778857,0.0010512089793194583,-0.003401492495206261,0.0007367720854934254,-0.06499573032613568,0.01387308936042464,-0.00486361503875776
-0.004886921905584123,0.01815142422074103,0.07609635538695278,9.161045541666667,-0.04086104166666667,-3.800076875,-0.0018061069847893961,0.020939628389234327,0.07687705090744797,-0.02263898863383792,0.12333651052700809,0.06319543287778857,-0.0011438508922569114,0.00016008789529255475,-0.0009680363701283417,0.04519548663690059,0.02193165313997686,0.011496580470832782
-0.0020943951023931952,0.01815142422074103,0.07819075048934597,9.07115125,-0.08172208333333333,-3.8245934999999998,-0.0018061069847893961,0.020939628389234327,0.07687705090744797,-0.02263898863383792,0.12333651052700809,0.06319543287778857,0.0001448699643437455,-0.003516691716896828,0.0003005641264646575,-0.003619487448771772,-0.0065504814322861924,-0.017055738784497454
-0.0027925268031909274,0.025132741228718346,0.07749261878854824,9.079323458333333,-0.06537766666666667,-3.7919046666666665,-0.0018061069847893961,0.020939628389234327,0.07687705090744797,-0.02263898863383792,0.12333651052700809,0.06319543287778857,-0.0002398516045025151,0.0017915930663724164,-0.0012795816783666412,0.10247765573223815,-0.0027207527392983048,-0.016863031671806854
-0.0020943951023931952,0.021642082724729686,0.07958701389094143,8.87501825,-0.057205458333333334,-3.759215833333333,-0.0018061069847893961,0.020939628389234327,0.07687705090744797,-0.02263898863383792,0.12333651052700809,0.06319543287778857,-0.0027140968931376073,-0.0009415789058512572,0.00045194781860865326,-0.06893468770797702,-0.02715557438223524,0.007498326754714728
0.003490658503988659,0.023736477827122883,0.07888888219014369,9.013945791666666,0.0,-3.77556025,-0.0018061069847893961,0.020939628389234327,0.07687705090744797,-0.02263898863383792,0.12333651052700809,0.06319543287778857,0.001926186808125982,0.0007438792625821814,-0.0011017875129660413,0.02894133373318265,0.017764843499664236,0.011609810143117502
-0.0006981317007977319,0.021642082724729686,0.08098327729253688,8.956740333333332,-0.032688833333333334,-3.800076875,-0.0018061069847893961,0.020939628389234327,0.07687705090744797,-0.02263898863383792,0.12333651052700809,0.06319543287778857,-0.00020344125027171037,0.0024328215154564557,0.0032560200204622687,-0.07311174070621067,0.009742245855771351,0.011556251194999782
0.0,0.017453292519943295,0.07400196028455958,9.103840083333333,-0.04903325,-3.8245934999999998,-0.0018061069847893961,0.020939628389234327,0.07687705090744797,-0.02263898863383792,0.12333651052700809,0.06319543287778857,0.0010129318496402838,-0.00047312990172213417,-0.0037966690208795215,0.05338554973170364,-0.002518594667340211,-0.0007455309378580972
-0.0020943951023931952,0.01815142422074103,0.08168140899333462,8.997601374999999,-0.04086104166666667,-3.8245934999999998,-0.0018061069847893961,0.020939628389234327,0.07687705090744797,-0.02263898863383792,0.12333651052700809,0.06319543287778857,0.0008848589860321282,-0.0004157837949524392,0.002174825768819308,0.13011352315032546,-0.24331372429731885,-0.19487220210088477
-0.003490658503988659,0.01815142422074103,0.07819075048934597,9.062979041666667,-0.008172208333333333,-3.8164212916666664,-0.0018061069847893961,0.020939628389234327,0.07687705090744797,-0.02263898863383792,0.12333651052700809,0.06319543287778857,-0.0010486516428624246,7.786649820801688e-05,-0.0008048363758922178,0.06573649296612966,0.046560531038042224,-0.01699647281814791
-0.0013962634015954637,0.01884955592153876,0.08028514559173915,8.932223708333334,-0.0980665,-3.7837324583333327,-0.0018061069847893961,0.020939628389234327,0.07687705090744797,-0.02263898863383792,0.12333651052700809,0.06319543287778857,0.00032125149685803214,-0.001614793053970796,0.002272772020057077,-0.08543063356586851,-0.02721104908446264,0.01565158167041606
-0.0020943951023931952,0.021642082724729686,0.07609635538695278,9.103840083333333,-0.04086104166666667,-3.8164212916666664,-0.0018061069847893961,0.020939628389234327,0.07687705090744797,-0.02263898863383792,0.12333651052700809,0.06319543287778857,-0.0018045605152147127,-0.0005232759512503516,-0.0024414515815677795,0.09034987629796516,0.017892334490996326,-0.0006729749883057547
0.0013962634015954637,0.02234021442552742,0.08028514559173915,8.9240515,-0.07354987499999999,-3.8164212916666664,-0.0018061069847893961,0.020939628389234327,0.07687705090744797,-0.02263898863383792,0.12333651052700809,0.06319543287778857,0.00075769343133542,0.0015334517347118492,0.0015899300736559783,-0.08138004581368215,-0.014915941329880235,-0.016969649671289146
0.0,0.019547687622336492,0.07749261878854824,9.087495666666666,-0.04086104166666667,-3.7837324583333327,-0.0018061069847893961,0.020939628389234327,0.07687705090744797,-0.02263898863383792,0.12333651052700809,0.06319543287778857,0.002239204507153874,-0.002120440798149054,-0.0003975060046015818,0.03302814381176922,-0.002610255464747545,0.011578209286556097
-0.004886921905584123,0.023736477827122883,0.07819075048934597,9.022118,-0.032688833333333334,-3.8082490833333327,-0.0018061069847893961,0.020939628389234327,0.07687705090744797,-0.02263898863383792,0.12333651052700809,0.06319543287778857,0.0005569122450711348,0.003788386042914307,0.0007286748650383738,-0.011703782850105504,-0.010736041396014284,-0.004671880544390661
-0.005585053606381855,0.016057029118347832,0.07609635538695278,9.046634625,-0.008172208333333333,-3.800076875,-0.0018061069847893961,0.020939628389234327,0.07687705090744797,-0.02263898863383792,0.12333651052700809,0.06319543287778857,0.0010680945343416052,-0.00031828638665935697,-9.759385415732286e-05,0.05737515849897917,0.022004774162977164,-0.004983632554419415
-0.00767944870877505,0.016755160819145562,0.0767944870877505,8.932223708333334,-0.04903325,-3.7919046666666665,-0.0018061069847893961,0.020939628389234327,0.07687705090744797,-0.02263898863383792,0.12333651052700809,0.06319543287778857,-0.0004912789904536734,-3.891149286723722e-06,-0.00249220774625448,-0.06916834822185773,-0.01887545407501569,-0.0008053773277396959
-0.006283185307179587,0.016755160819145562,0.08168140899333462,9.07115125,-0.008172208333333333,-3.7919046666666665,-0.0018061069847893961,0.020939628389234327,0.07687705090744797,-0.02263898863383792,0.12333651052700809,0.06319543287778857,-0.0010850709947035405,-0.0024858448908225304,0.001705604451020769,0.04539967668916008,0.04640791581193001,-0.004811011106215798
-0.0041887902047863905,0.02234021442552742,0.07819075048934597,8.981256958333333,-0.0980665,-3.7837324583333327,-0.0018061069847893961,0.020939628389234327,0.07687705090744797,-0.02263898863383792,0.12333651052700809,0.06319543287778857,-0.0011437806711724566,0.0013844278398038796,0.0010612915856477957,-0.048677127483686855,-0.022925718798775568,0.01165787878711678
-0.0020943951023931952,0.01884955592153876,0.07609635538695278,9.079323458333333,-0.04903325,-3.8082490833333327,-0.0018061069847893961,0.020939628389234327,0.07687705090744797,-0.02263898863383792,0.12333651052700809,0.06319543287778857,-0.0013086264051880186,-0.003417016635920852,-0.0006051224985678226,0.23099728528863744,-0.22108161291222647,-0.1933679423540726
0.0006981317007977319,0.025132741228718346,0.07819075048934597,8.956740333333332,-0.057205458333333334,-3.8082490833333327,-0.0018061069847893961,0.020939628389234327,0.07687705090744797,-0.02263898863383792,0.12333651052700809,0.06319543287778857,-0.00021372575955888397,0.0018072546205918968,0.0014145836490620795,-0.048648931096110674,-0.01067834270667001,-0.0046806987103938475
0.0013962634015954637,0.021642082724729686,0.07539822368615504,9.054806833333332,-0.032688833333333334,-3.800076875,-0.0018061069847893961,0.020939628389234327,0.07687705090744797,-0.02263898863383792,0.12333651052700809,0.06319543287778857,0.0011859586102759983,-0.0012058669710200399,-0.0011193098060435812,0.045308219260915904,0.0016054720450146057,0.0034904324182575205
-0.0013962634015954637,0.024434609527920613,0.07749261878854824,8.964912541666667,-0.032688833333333334,-3.8082490833333327,-0.0018061069847893961,0.020939628389234327,0.07687705090744797,-0.02263898863383792,0.12333651052700809,0.06319543287778857,0.0008679522714341067,0.004041117391954492,0.0002767181523525198,-0.019997786878804616,0.005469589927885839,-0.008856291705673338
-0.0027925268031909274,0.016057029118347832,0.07749261878854824,9.005773583333333,-0.04086104166666667,-3.7919046666666665,-0.0018061069847893961,0.020939628389234327,0.07687705090744797,-0.02263898863383792,0.12333651052700809,0.06319543287778857,-0.0010494001367085829,-0.00260372894453424,0.0008204874624999576,-0.028278212632641637,-0.014744278079966509,-0.008951052282183574
-0.0006981317007977319,0.020943951023931952,0.07539822368615504,9.062979041666667,-0.008172208333333333,-3.77556025,-0.0018061069847893961,0.020939628389234327,0.07687705090744797,-0.02263898863383792,0.12333651052700809,0.06319543287778857,0.0005071390155522284,0.0022480176623222354,-0.0014288501764925386,0.0126767262406089,0.017750261132679666,0.007525967859370909
-0.0020943951023931952,0.016755160819145562,0.07819075048934597,9.038462416666666,-0.04086104166666667,-3.7919046666666665,-0.0018061069847893961,0.020939628389234327,0.07687705090744797,-0.02263898863383792,0.12333651052700809,0.06319543287778857,0.0010074754667906303,-0.0009770142128772915,0.0011351718035565415,-0.00788840506732837,0.0015790877821977752,0.007514465435314023
-0.003490658503988659,0.01884955592153876,0.07609635538695278,9.054806833333332,-0.04086104166666667,-3.8082490833333327,-0.0018061069847893961,0.020939628389234327,0.07687705090744797,-0.02263898863383792,0.12333651052700809,0.06319543287778857,-0.00043965896087028834,0.0009449471212796865,8.070212909315594e-05,0.004349405439613346,0.022076815611332085,0.0032128102145576975
-0.0027925268031909274,0.016755160819145562,0.07609635538695278,9.046634625,-0.08172208333333333,-3.8164212916666664,-0.0018061069847893961,0.020939628389234327,0.07687705090744797,-0.02263898863383792,0.12333651052700809,0.06319543287778857,0.0013264710148063034,-0.0028108657559196434,0.0003333895570915381,-0.0035461883501829443,-0.035215162314667564,-0.008780027322666941
-0.005585053606381855,0.023038346126325153,0.07539822368615504,9.054806833333332,-0.008172208333333333,-3.800076875,-0.0018061069847893961,0.020939628389234327,0.07687705090744797,-0.02263898863383792,0.12333651052700809,0.06319543287778857,-0.0006847159312827074,0.0005327100986359632,-0.002666851100017233,0.17239261524646096,-0.2018294648955618,-0.18275848839044997
-0.003490658503988659,0.020943951023931952,0.08168140899333462,9.030290208333332,-0.016344416666666667,-3.7919046666666665,-0.0018061069847893961,0.020939628389234327,0.07687705090744797,-0.02263898863383792,0.12333651052700809,0.06319543287778857,-0.0028370132715562785,-0.002722313003233819,0.0012213643393546255,0.01664679704623169,0.0015278970055628267,-0.00461272429508812
0.0013962634015954637,0.02652900463031381,0.07888888219014369,8.997601374999999,-0.016344416666666667,-3.7837324583333327,-0.0018061069847893961,0.020939628389234327,0.07687705090744797,-0.02263898863383792,0.12333651052700809,0.06319543287778857,-0.00030740846286806024,0.004368718767089993,-0.0005312387545487826,0.033152895605227405,0.009677409342700656,-0.004761772682548155
0.0020943951023931952,0.017453292519943295,0.08028514559173915,8.932223708333334,-0.032688833333333334,-3.77556025,-0.0018061069847893961,0.020939628389234327,0.07687705090744797,-0.02263898863383792,0.12333651052700809,0.06319543287778857,0.001624945725354195,-0.00038821202670345626,0.002141561872879727,-0.07314547364461654,-0.023067106769018117,0.0033902921759735053
-0.0006981317007977319,0.01815142422074103,0.07609635538695278,9.079323458333333,0.016344416666666667,-3.7837324583333327,-0.0018061069847893961,0.020939628389234327,0.07687705090744797,-0.02263898863383792,0.12333651052700809,0.06319543287778857,0.0007507295271839444,-0.0006129952349936332,-0.00013326310990142284,0.00838005948453531,0.030110096627896286,0.0034101952643914124
-0.0027925268031909274,0.019547687622336492,0.07609635538695278,9.062979041666667,-0.04086104166666667,-3.7919046666666665,-0.0018061069847893961,0.020939628389234327,0.07687705090744797,-0.02263898863383792,0.12333651052700809,0.06319543287778857,0.00048602935113498065,0.0003358873481466948,0.000645430838644837,-0.03630660062982809,-0.027114103009731265,0.01548579366265236
-0.003490658503988659,0.01884955592153876,0.0747000919853573,9.136528916666666,0.016344416666666667,-3.8245934999999998,-0.0018061069847893961,0.020939628389234327,0.07687705090744797,-0.02263898863383792,0.12333651052700809,0.06319543287778857,0.00031560416743921536,-0.0014207545943372047,-0.0025693185235431595,0.06166108160721422,0.030198802887060176,-0.008881506794739126
-0.0041887902047863905,0.021642082724729686,0.07958701389094143,9.013945791666666,-0.04086104166666667,-3.8082490833333327,-0.0018061069847893961,0.020939628389234327,0.07687705090744797,-0.02263898863383792,0.12333651052700809,0.06319543287778857,-1.7881360254062967e-05,0.0003997333796533378,0.0010614289925418758,0.0004199815143915098,-0.014689592011949129,-0.0005634175042708025
-0.003490658503988659,0.020943951023931952,0.07749261878854824,9.013945791666666,-0.008172208333333333,-3.8082490833333327,-0.0018061069847893961,0.020939628389234327,0.07687705090744797,-0.02263898863383792,0.12333651052700809,0.06319543287778857,-0.0018673172998703658,-0.0015674122401275975,-0.002102895737849248,0.037127720507298734,0.00552584306083794,-0.02110706959268976
0.0,0.024434609527920613,0.08168140899333462,8.940395916666665,-0.016344416666666667,-3.7673880416666665,-0.0018061069847893961,0.020939628389234327,0.07687705090744797,-0.02263898863383792,0.12333651052700809,0.06319543287778857,0.00015359118667248963,8.572069133431668e-05,0.0032417472054123374,-0.04456243856555364,-0.010827614563240263,0.015746209174435657
-0.0006981317007977319,0.023736477827122883,0.07539822368615504,9.030290208333332,0.008172208333333333,-3.800076875,-0.0018061069847893961,0.020939628389234327,0.07687705090744797,-0.02263898863383792,0.12333651052700809,0.06319543287778857,-0.0007540552824003171,0.0036725220412676214,0.000731329481099528,0.045256393116950636,0.022010613861622983,-0.0005760419288084154
0.0006981317007977319,0.016755160819145562,0.07400196028455958,8.940395916666665,-0.032688833333333334,-3.800076875,-0.0018061069847893961,0.020939628389234327,0.07687705090744797,-0.02263898863383792,0.12333651052700809,0.06319543287778857,0.0012017179433611183,0.00048784357856746375,-2.9132368119824013e-05,-0.08536424011173388,-0.0026163707187507167,0.015493274725348246
-0.0013962634015954637,0.016057029118347832,0.07400196028455958,9.112012291666666,-0.024516625,-3.832765708333333,-0.0018061069847893961,0.020939628389234327,0.07687705090744797,-0.02263898863383792,0.12333651052700809,0.06319543287778857,0.0006271742724274966,-0.0043775723709111435,-0.0012293998250017821,0.09833985346999272,0.034246195903085495,-0.025118679084775688
-0.0027925268031909274,0.024434609527920613,0.0767944870877505,8.915879291666666,-0.08989429166666667,-3.7837324583333327,-0.0018061069847893961,0.020939628389234327,0.07687705090744797,-0.02263898863383792,0.12333651052700809,0.06319543287778857,0.00034997199640083426,0.0030392079415763463,0.0014417235326252388,-0.06503324823552924,-0.018809593460791266,0.0033831501989368493
-0.003490658503988659,0.01815142422074103,0.07330382858376185,9.046634625,-0.04903325,-3.7919046666666665,-0.0018061069847893961,0.020939628389234327,0.07687705090744797,-0.02263898863383792,0.12333651052700809,0.06319543287778857,-0.0011634717672979389,-0.0016148654158716178,-0.0010625076640162054,0.02908831309596838,0.01381181908362343,0.011600064943743507
-0.0006981317007977319,0.021642082724729686,0.07609635538695278,8.989429166666666,-0.07354987499999999,-3.8164212916666664,-0.0018061069847893961,0.020939628389234327,0.07687705090744797,-0.02263898863383792,0.12333651052700809,0.06319543287778857,-0.00045023855054204375,-0.0006596284795636988,-0.0007600069665429621,-0.024216638645805328,-0.02707527064808796,-0.012844964373401203
0.0,0.023038346126325153,0.0767944870877505,9.038462416666666,-0.016344416666666667,-3.7919046666666665,-0.0018061069847893961,0.020939628389234327,0.07687705090744797,-0.02263898863383792,0.12333651052700809,0.06319543287778857,0.00042229484956452,-0.00010441436831056956,-0.0003733557826498542,0.04134501607511459,0.034225148115343836,-0.012975402656687033
-0.0006981317007977319,0.023038346126325153,0.07819075048934597,8.956740333333332,-0.08172208333333333,-3.7673880416666665,-0.0018061069847893961,0.020939628389234327,0.07687705090744797,-0.02263898863383792,0.12333651052700809,0.06319543287778857,0.00037457223993236433,-0.00032777746903008025,0.0016554808775434255,-0.06092028094485669,-0.027111410404256703,0.011641081752130224
-0.0013962634015954637,0.023736477827122883,0.0747000919853573,9.079323458333333,-0.024516625,-3.7919046666666665,-0.0018061069847893961,0.020939628389234327,0.07687705090744797,-0.02263898863383792,0.12333651052700809,0.06319543287778857,0.0007955883044055187,-0.0005905878231462618,-0.001956564568234545,0.04529862251696551,0.009907304990946835,-0.012768644450516328
-0.003490658503988659,0.025132741228718346,0.07819075048934597,8.989429166666666,-0.04086104166666667,-3.7673880416666665,-0.0018061069847893961,0.020939628389234327,0.07687705090744797,-0.02263898863383792,0.12333651052700809,0.06319543287778857,-0.0002832714898230693,0.0028809488531838573,-0.003139580394610966,-0.044452983516206794,0.009502313280830257,0.015567778246369802
-0.0027925268031909274,0.019547687622336492,0.08447393579652555,9.079323458333333,-0.057205458333333334,-3.800076875,-0.0018061069847893961,0.020939628389234327,0.07687705090744797,-0.02263898863383792,0.12333651052700809,0.06319543287778857,-0.0008707710619192852,-0.00207626060780494,0.0005791274297850554,0.020857093990581853,-0.014958262049350902,-0.008690038564328609
-0.0006981317007977319,0.023038346126325153,0.08377580409572781,9.038462416666666,-0.024516625,-3.7837324583333327,-0.0018061069847893961,0.020939628389234327,0.07687705090744797,-0.02263898863383792,0.12333651052700809,0.06319543287778857,0.0009488126690513488,6.301953816919907e-05,0.0005500581592123849,0.33913449955701497,-0.42055441108367153,-0.3558027941925527
-0.0020943951023931952,0.021642082724729686,0.08517206749732328,9.030290208333332,-0.04086104166666667,-3.800076875,-0.0018061069847893961,0.020939628389234327,0.07687705090744797,-0.02263898863383792,0.12333651052700809,0.06319543287778857,-0.0009779682161081523,-0.00016516761946320705,0.0011823746634815337,0.02493087736995016,0.009670482735065865,-0.01293803363034318
0.0,0.02234021442552742,0.08237954069413235,8.981256958333333,-0.057205458333333334,-3.77556025,-0.0018061069847893961,0.020939628389234327,0.07687705090744797,-0.02263898863383792,0.12333651052700809,0.06319543287778857,-0.0012367192422979797,0.0007619284518460424,0.003262005494685656,-0.0404684717376904,-0.023215203855312495,0.015628125192931556
0.0027925268031909274,0.02024581932313422,0.07609635538695278,9.062979041666667,-0.008172208333333333,-3.8082490833333327,-0.0018061069847893961,0.020939628389234327,0.07687705090744797,-0.02263898863383792,0.12333651052700809,0.06319543287778857,0.0022852240950111268,0.00031004941748856457,0.0004935074554445735,0.020840433959069402,-0.0024153061222153193,-0.0006255994284118779
-0.0020943951023931952,0.02024581932313422,0.07539822368615504,9.022118,0.0,-3.8082490833333327,-0.0018061069847893961,0.020939628389234327,0.07687705090744797,-0.02263898863383792,0.12333651052700809,0.06319543287778857,-0.0003003933205706422,0.0017572764593443235,-0.0023138984603263257,0.0043953325211152396,0.02596915789545264,-0.008882329489465941
-0.0013962634015954637,0.016755160819145562,0.07958701389094143,9.013945791666666,-0.04903325,-3.7919046666666665,-0.0018061069847893961,0.020939628389234327,0.07687705090744797,-0.02263898863383792,0.12333651052700809,0.06319543287778857,0.0002651938656217245,-0.000755933617043098,0.000504874366880441,0.016672914765165033,0.005637827760195413,-0.0007390895763989925
-0.0020943951023931952,0.01815142422074103,0.07888888219014369,8.981256958333333,-0.057205458333333334,-3.7919046666666665,-0.0018061069847893961,0.020939628389234327,0.07687705090744797,-0.02263898863383792,0.12333651052700809,0.06319543287778857,-4.391538307311202e-05,0.00041378156981618534,-0.0014409279399700665,-0.016025788955998026,-0.00279726820179765,-0.004839741848440013
-0.0020943951023931952,0.017453292519943295,0.08168140899333462,9.013945791666666,-0.04903325,-3.7837324583333327,-0.0018061069847893961,0.020939628389234327,0.07687705090744797,-0.02263898863383792,0.12333651052700809,0.06319543287778857,0.0010102109126591547,-0.0032946049474282045,0.004153405987224293,0.00041719532374332623,-0.0066035908485608825,0.011581148530380326
-0.003490658503988659,0.023736477827122883,0.07330382858376185,9.013945791666666,-0.032688833333333334,-3.8082490833333327,-0.0018061069847893961,0.020939628389234327,0.07687705090744797,-0.02263898863383792,0.12333651052700809,0.06319543287778857,-0.0011194774968945579,0.0034680134119095905,-0.0008279585248928621,0.0003784712125495226,-0.002414089940235013,-0.008991094599981472
-0.0013962634015954637,0.016755160819145562,0.0747000919853573,9.013945791666666,-0.024516625,-3.7919046666666665,-0.0018061069847893961,0.020939628389234327,0.07687705090744797,-0.02263898863383792,0.12333651052700809,0.06319543287778857,0.00022255042653803586,-0.004163009633754245,0.001349840129490816,0.09978312614369056,-0.21377637577747716,-0.14202102536483455
-0.0013962634015954637,0.024434609527920613,0.07400196028455958,9.103840083333333,0.032688833333333334,-3.8164212916666664,-0.0018061069847893961,0.020939628389234327,0.07687705090744797,-0.02263898863383792,0.12333651052700809,0.06319543287778857,0.000421964033608918,0.0010440111753936385,-0.0020400654395484863,0.061616068192722515,0.022006761221628243,-0.02114335437405322
-0.0020943951023931952,0.02234021442552742,0.07749261878854824,8.981256958333333,-0.008172208333333333,-3.77556025,-0.0018061069847893961,0.020939628389234327,0.07687705090744797,-0.02263898863383792,0.12333651052700809,0.06319543287778857,0.0010481135240417996,0.0009446690210776204,0.0021399071317476253,-0.032264737699038065,0.04665130400165391,-0.021039018051766733
-0.0041887902047863905,0.02024581932313422,0.07330382858376185,9.046634625,-0.0980665,-3.7346992083333332,-0.0018061069847893961,0.020939628389234327,0.07687705090744797,-0.02263898863383792,0.12333651052700809,0.06319543287778857,-5.036826206298226e-05,-0.0005684011109826703,-0.002232835368045306,0.03718716994347081,-0.018854050919875003,0.027957816216428844
-0.0041887902047863905,0.021642082724729686,0.07749261878854824,8.97308475,-0.057205458333333334,-3.7919046666666665,-0.0018061069847893961,0.020939628389234327,0.07687705090744797,-0.02263898863383792,0.12333651052700809,0.06319543287778857,-0.0012107068647868454,-0.0007248816018708875,0.0013703100475464729,-0.024029493223953965,-0.006604594190430274,0.011535936844612795
-0.0013962634015954637,0.023038346126325153,0.0747000919853573,9.022118,-0.04086104166666667,-3.8164212916666664,-0.0018061069847893961,0.020939628389234327,0.07687705090744797,-0.02263898863383792,0.12333651052700809,0.06319543287778857,-3.2647211155770265e-05,0.002262558467934722,-0.002471247058969236,0.008438367474398065,0.03413283645161611,-0.017069620569628217
-0.0020943951023931952,0.01884955592153876,0.07958701389094143,9.005773583333333,-0.10623870833333333,-3.7837324583333327,-0.0018061069847893961,0.020939628389234327,0.07687705090744797,-0.02263898863383792,0.12333651052700809,0.06319543287778857,-0.0007491645510872644,-0.0025266076766551726,0.00046679852503029386,-0.06085478382211068,-0.014958699694657277,0.015730003115740847
-0.0006981317007977319,0.023736477827122883,0.07888888219014369,9.128356708333332,-0.07354987499999999,-3.8164212916666664,-0.0018061069847893961,0.020939628389234327,0.07687705090744797,-0.02263898863383792,0.12333651052700809,0.06319543287778857,0.0007262388493308644,0.001320400756221978,-0.00040344669543489734,0.09021431814600306,0.030230093742741666,-0.03324266236228354
-0.0020943951023931952,0.020943951023931952,0.07958701389094143,8.948568125,-0.13075533333333333,-3.751043625,-0.0018061069847893961,0.020939628389234327,0.07687705090744797,-0.02263898863383792,0.12333651052700809,0.06319543287778857,-0.0006888974825490216,0.00030460684210580205,0.0007342846787832694,-0.044617418149126585,-0.03935298473274712,0.01973566673451425
0.0,0.02024581932313422,0.07819075048934597,9.038462416666666,-0.04903325,-3.7919046666666665,-0.0018061069847893961,0.020939628389234327,0.07687705090744797,-0.02263898863383792,0.12333651052700809,0.06319543287778857,-0.0005288184220913697,0.0021964703070747075,0.0004455964447041397,0.0780704392165813,0.013711593803282492,-0.0047947647087352085
0.0006981317007977319,0.016057029118347832,0.07749261878854824,8.883190458333333,-0.07354987499999999,-3.7837324583333327,-0.0018061069847893961,0.020939628389234327,0.07687705090744797,-0.02263898863383792,0.12333651052700809,0.06319543287778857,0.000583466758938005,-0.0009441195588300753,-0.0008259674019600845,-0.11819391682011246,-0.019048192987641932,0.023825021147414256
-0.0006981317007977319,0.017453292519943295,0.07888888219014369,9.1201845,-0.032688833333333334,-3.832765708333333,-0.0018061069847893961,0.020939628389234327,0.07687705090744797,-0.02263898863383792,0.12333651052700809,0.06319543287778857,0.0013459958844449723,-0.0033356866898928174,-0.002554969978408292,0.22287058432002976,-0.20926939061357192,-0.18054577789230092
-0.0027925268031909274,0.023736477827122883,0.08517206749732328,8.997601374999999,-0.032688833333333334,-3.8164212916666664,-0.0018061069847893961,0.020939628389234327,0.07687705090744797,-0.02263898863383792,0.12333651052700809,0.06319543287778857,0.0010638578450459183,5.137432796992938e-05,0.0008357690697579479,-0.07301298984044963,-0.027215908286368915,0.003476389356006559
-0.0041887902047863905,0.023736477827122883,0.08377580409572781,9.144701125,0.024516625,-3.8245934999999998,-0.0018061069847893961,0.020939628389234327,0.07687705090744797,-0.02263898863383792,0.12333651052700809,0.06319543287778857,-0.0005134831578254061,0.00021802918557684895,0.0010251859999114207,0.0698010117606494,0.034012387876784275,-0.025120604200370676
-0.0041887902047863905,0.023736477827122883,0.08168140899333462,9.005773583333333,-0.04086104166666667,-3.77556025,-0.0018061069847893961,0.020939628389234327,0.07687705090744797,-0.02263898863383792,0.12333651052700809,0.06319543287778857,-0.00045122861927545234,0.0003163776158395069,0.0011146487901830824,0.008444287570604527,-0.006608760437520414,0.0034730063617216937
-0.0027925268031909274,0.02234021442552742,0.07958701389094143,8.989429166666666,-0.024516625,-3.7837324583333327,-0.0018061069847893961,0.020939628389234327,0.07687705090744797,-0.02263898863383792,0.12333651052700809,0.06319543287778857,-0.0008429722492071161,0.001881319811912381,-0.0010514914193419725,0.04532652777119364,0.009591861284496222,-0.008860739899529875
-0.0013962634015954637,0.01884955592153876,0.08168140899333462,8.899534874999999,-0.04086104166666667,-3.7673880416666665,-0.0018061069847893961,0.020939628389234327,0.07687705090744797,-0.02263898863383792,0.12333651052700809,0.06319543287778857,0.0005502505639355371,0.000877305462941095,0.000849519115163479,-0.09769829981470902,0.0014685633276634235,0.02790604211203799
-0.0020943951023931952,0.017453292519943295,0.07958701389094143,9.095667875,-0.04086104166666667,-3.8245934999999998,-0.0018061069847893961,0.020939628389234327,0.07687705090744797,-0.02263898863383792,0.12333651052700809,0.06319543287778857,-0.001036025810489721,-0.0028230345347304113,0.00030052600568150297,0.03322753977812145,-0.01088048436626881,0.0074498129650148225
0.0,0.023038346126325153,0.07958701389094143,9.030290208333332,-0.016344416666666667,-3.8409379166666664,-0.0018061069847893961,0.020939628389234327,0.07687705090744797,-0.02263898863383792,0.12333651052700809,0.06319543287778857,0.0024124718099974326,0.0023773025131726164,0.003107852406027284,-0.04460918995021651,0.021964598846956424,-0.012948927364188952
-0.004886921905584123,0.01815142422074103,0.07330382858376185,9.1201845,-0.057205458333333334,-3.8164212916666664,-0.0018061069847893961,0.020939628389234327,0.07687705090744797,-0.02263898863383792,0.12333651052700809,0.06319543287778857,-0.0006031933389709413,-0.00044372920663036155,-0.00168950306740971,0.09012969342177723,-0.0024181287218456343,-0.02516937927075503
-0.003490658503988659,0.01884955592153876,0.07609635538695278,8.940395916666665,-0.04903325,-3.7673880416666665,-0.0018061069847893961,0.020939628389234327,0.07687705090744797,-0.02263898863383792,0.12333651052700809,0.06319543287778857,-9.191923608093056e-05,0.0005821865737971019,0.0005144185075859413,0.11662885334426287,-0.20094556517389012,-0.1480676668484049
-0.0027925268031909274,0.017453292519943295,0.0767944870877505,8.989429166666666,-0.016344416666666667,-3.77556025,-0.0018061069847893961,0.020939628389234327,0.07687705090744797,-0.02263898863383792,0.12333651052700809,0.06319543287778857,0.0010488790150019734,-0.0033551221066000655,-0.0008817415915956874,0.016694864999816827,-0.010660541491864843,0.0036118096966042666
-0.004886921905584123,0.023736477827122883,0.07819075048934597,8.956740333333332,0.008172208333333333,-3.7837324583333327,-0.0018061069847893961,0.020939628389234327,0.07687705090744797,-0.02263898863383792,0.12333651052700809,0.06319543287778857,7.04434983975764e-05,0.004453796983359217,0.00019965092050171533,-0.015923045521196857,0.030124954403199684,0.0031566547222894583
-0.004886921905584123,0.014660765716752367,0.07819075048934597,8.989429166666666,-0.04903325,-3.7919046666666665,-0.0018061069847893961,0.020939628389234327,0.07687705090744797,-0.02263898863383792,0.12333651052700809,0.06319543287778857,0.00011152540414881108,-0.002637182079329131,0.00024067236246825101,-0.007730455329839002,0.02192303625195055,-0.008767515850251055
-0.005585053606381855,0.02024581932313422,0.07749261878854824,9.005773583333333,-0.08989429166666667,-3.77556025,-0.0018061069847893961,0.020939628389234327,0.07687705090744797,-0.02263898863383792,0.12333651052700809,0.06319543287778857,-0.0009376798965473006,0.0001495474963684696,0.0005771069882575845,-0.003743862011477672,-0.014758350560827364,0.011581063415606451
-0.003490658503988659,0.02024581932313422,0.0767944870877505,9.013945791666666,-0.057205458333333334,-3.800076875,-0.0018061069847893961,0.020939628389234327,0.07687705090744797,-0.02263898863383792,0.12333651052700809,0.06319543287778857,-0.001554820212864618,-0.0015616175388538755,-0.0012947482768266032,0.00023268479723996926,0.013850090894502589,0.007496045736985708
-0.0006981317007977319,0.023038346126325153,0.07888888219014369,9.013945791666666,-0.08172208333333333,-3.8164212916666664,-0.0018061069847893961,0.020939628389234327,0.07687705090744797,-0.02263898863383792,0.12333651052700809,0.06319543287778857,0.0012631840421444755,0.00012854111359675082,-0.0009145418993790858,-0.015864664146374864,-0.010856815125773958,-0.01295458992167753
-0.0027925268031909274,0.023038346126325153,0.08098327729253688,9.046634625,-0.057205458333333334,-3.7919046666666665,-0.0018061069847893961,0.020939628389234327,0.07687705090744797,-0.02263898863383792,0.12333651052700809,0.06319543287778857,0.0003385145062634088,-0.0006603757513461786,1.8272865416996265e-05,0.029136894117746316,-0.01082557742195741,-0.00045299860780361676
-0.003490658503988659,0.024434609527920613,0.08098327729253688,8.989429166666666,-0.032688833333333334,-3.7919046666666665,-0.0018061069847893961,0.020939628389234327,0.07687705090744797,-0.02263898863383792,0.12333651052700809,0.06319543287778857,-0.00333567682549203,0.0038858572550388645,-0.0008404409749745055,-0.003818270871603746,0.01369269000895932,-0.0047691192079634525
0.0027925268031909274,0.016057029118347832,0.08237954069413235,8.997601374999999,-0.057205458333333334,-3.7837324583333327,-0.0018061069847893961,0.020939628389234327,0.07687705090744797,-0.02263898863383792,0.12333651052700809,0.06319543287778857,0.0017590201419261603,-0.0019260983205840287,0.002156733327331047,-0.03227610227932932,-0.02714627701157831,0.0073480307346295735
0.0,0.02024581932313422,0.07819075048934597,9.062979041666667,0.0,-3.800076875,-0.0018061069847893961,0.020939628389234327,0.07687705090744797,-0.02263898863383792,0.12333651052700809,0.06319543287778857,0.0022361089642706335,0.0010643668037797463,0.00010702292282520181,0.03705396674448058,0.017733926403712613,0.011480669901086144
-0.004886921905584123,0.01815142422074103,0.07819075048934597,8.989429166666666,-0.032688833333333334,-3.8245934999999998,-0.0018061069847893961,0.020939628389234327,0.07687705090744797,-0.02263898863383792,0.12333651052700809,0.06319543287778857,-0.0003621633095183845,-0.0027798545098528973,-0.001175905198457928,-0.040578738743778375,-0.0025706990200421265,-0.008798774302915207
-0.0041887902047863905,0.023736477827122883,0.08028514559173915,9.07115125,-0.024516625,-3.8082490833333327,-0.0018061069847893961,0.020939628389234327,0.07687705090744797,-0.02263898863383792,0.12333651052700809,0.06319543287778857,-0.00222965621090175,0.0014653310816570802,-0.0014342720513466655,0.08230738654181846,0.021829103763998665,-0.03732609938594753
0.0,0.02024581932313422,0.08307767239493008,8.907707083333333,-0.06537766666666667,-3.7346992083333332,-0.0018061069847893961,0.020939628389234327,0.07687705090744797,-0.02263898863383792,0.12333651052700809,0.06319543287778857,0.0015762849285471934,-0.0016535930856703652,0.0006654352049238511,-0.10182290258333056,-0.019022955466214332,0.04022679472163705
-0.0027925268031909274,0.023736477827122883,0.08168140899333462,9.112012291666666,-0.024516625,-3.8164212916666664,-0.0018061069847893961,0.020939628389234327,0.07687705090744797,-0.02263898863383792,0.12333651052700809,0.06319543287778857,-2.5339699365825396e-05,0.0015386990291593207,0.002638454694794509,0.05352388391990231,0.03421430441366808,-0.021143926594763666
-0.0027925268031909274,0.020943951023931952,0.0767944870877505,9.005773583333333,-0.08989429166666667,-3.77556025,-0.0018061069847893961,0.020939628389234327,0.07687705090744797,-0.02263898863383792,0.12333651052700809,0.06319543287778857,-0.0007497403066195672,-0.0007385809163503917,0.0017894890697904193,-0.012018017910999462,-0.01881182334957554,0.0076015907228418325
-0.0013962634015954637,0.02234021442552742,0.07330382858376185,9.030290208333332,-0.04903325,-3.7919046666666665,-0.0018061069847893961,0.020939628389234327,0.07687705090744797,-0.02263898863383792,0.12333651052700809,0.06319543287778857,0.0018009979222969896,0.004277778578288286,-0.00455698778215108,0.05358693164015184,-0.014850666320223284,-0.008851045305512131
-0.004886921905584123,0.013962634015954637,0.08168140899333462,8.9240515,-0.016344416666666667,-3.77556025,-0.0018061069847893961,0.020939628389234327,0.07687705090744797,-0.02263898863383792,0.12333651052700809,0.06319543287778857,5.885602798320663e-05,-0.002869286711210012,0.0028554133471617275,-0.08546758110293447,-0.031318004667279534,0.019623151404096158
-0.004886921905584123,0.019547687622336492,0.07609635538695278,9.095667875,0.04903325,-3.8164212916666664,-0.0018061069847893961,0.020939628389234327,0.07687705090744797,-0.02263898863383792,0.12333651052700809,0.06319543287778857,-0.00017966209932724738,-0.0003407553111674097,-0.0012177995688102976,0.041135300171362195,0.04254367494671869,-0.01291512795838783
-0.004886921905584123,0.02024581932313422,0.07888888219014369,9.013945791666666,-0.032688833333333334,-3.7919046666666665,-0.0018061069847893961,0.020939628389234327,0.07687705090744797,-0.02263898863383792,0.12333651052700809,0.06319543287778857,-0.00055230575108028,-0.0005545010169510423,0.0004669475050168189,-0.05268393248079956,0.005510491863091268,0.02793236119565475
-0.003490658503988659,0.021642082724729686,0.07749261878854824,9.1201845,-0.04086104166666667,-3.8491101249999997,-0.0018061069847893961,0.020939628389234327,0.07687705090744797,-0.02263898863383792,0.12333651052700809,0.06319543287778857,0.0003536180436884004,-0.0016532987086665845,9.73280283907646e-06,0.34958300784247365,-0.33788343475148147,-0.33977461114743496
-0.0027925268031909274,0.023038346126325153,0.08098327729253688,8.981256958333333,-0.0980665,-3.7837324583333327,-0.0018061069847893961,0.020939628389234327,0.07687705090744797,-0.02263898863383792,0.12333651052700809,0.06319543287778857,0.000666782746690904,0.0007535777621161872,0.0008916594329813504,-0.01596125137907652,-0.014978602016990443,0.003379677771799516
-0.0041887902047863905,0.021642082724729686,0.07888888219014369,9.013945791666666,-0.06537766666666667,-3.7919046666666665,-0.0018061069847893961,0.020939628389234327,0.07687705090744797,-0.02263898863383792,0.12333651052700809,0.06319543287778857,-0.002375751717015559,0.0013767528346078747,0.0007371393864717298,0.05355105257885982,0.03436970744952241,-0.02923709641262023
0.0006981317007977319,0.01884955592153876,0.07749261878854824,8.907707083333333,-0.13075533333333333,-3.7346992083333332,-0.0018061069847893961,0.020939628389234327,0.07687705090744797,-0.02263898863383792,0.12333651052700809,0.06319543287778857,0.0012118691644361977,0.00024088782848865053,0.0017145800527413714,-0.08130214565431247,-0.03939158907009729,0.023884270794544287
-0.0020943951023931952,0.01815142422074103,0.07400196028455958,9.07115125,-0.04903325,-3.7837324583333327,-0.0018061069847893961,0.020939628389234327,0.07687705090744797,-0.02263898863383792,0.12333651052700809,0.06319543287778857,-0.0004364553207376671,-0.00014364820000273604,-0.0012230971155961757,0.04125012892716793,0.005576085215452554,0.003281522737373791
-0.0013962634015954637,0.01815142422074103,0.0767944870877505,8.989429166666666,-0.057205458333333334,-3.7919046666666665,-0.0018061069847893961,0.020939628389234327,0.07687705090744797,-0.02263898863383792,0.12333651052700809,0.06319543287778857,2.4982096230126297e-05,0.000599193343030878,-0.00030268280529948424,-0.06518361709826792,-0.05160681689283283,0.011457157993694058
-0.0013962634015954637,0.017453292519943295,0.07749261878854824,9.1201845,0.04903325,-3.8164212916666664,-0.0018061069847893961,0.020939628389234327,0.07687705090744797,-0.02263898863383792,0.12333651052700809,0.06319543287778857,0.0019870091195164333,-0.003901371840897512,0.00015505514131793026,0.08227349883695433,0.03427094573583966,-0.021043999633529868
-0.004886921905584123,0.025132741228718346,0.0767944870877505,8.956740333333332,-0.016344416666666667,-3.77556025,-0.0018061069847893961,0.020939628389234327,0.07687705090744797,-0.02263898863383792,0.12333651052700809,0.06319543287778857,-0.000992115275063548,0.0020097890932053706,-0.0017282743992550152,-0.032284512519743555,-0.006628499239431517,0.007579432766325405
-0.0027925268031909274,0.020943951023931952,0.08028514559173915,9.022118,0.0,-3.7919046666666665,-0.0018061069847893961,0.020939628389234327,0.07687705090744797,-0.02263898863383792,0.12333651052700809,0.06319543287778857,0.00016190013181206187,0.00110204631954661,0.00010424277794229891,0.04523256942380258,0.03829629845025759,-0.004843903223830901
-0.003490658503988659,0.01884955592153876,0.08028514559173915,8.932223708333334,-0.07354987499999999,-3.7837324583333327,-0.0018061069847893961,0.020939628389234327,0.07687705090744797,-0.02263898863383792,0.12333651052700809,0.06319543287778857,0.00022527056648975974,0.0020697490041936733,0.0023531408427576905,-0.011968129283933667,-0.002629833585151647,0.0073779772776274444
-0.0041887902047863905,0.014660765716752367,0.07539822368615504,8.956740333333332,-0.06537766666666667,-3.800076875,-0.0018061069847893961,0.020939628389234327,0.07687705090744797,-0.02263898863383792,0.12333651052700809,0.06319543287778857,-0.0012694608292508295,-0.0022664127078458143,-0.001987126080315133,0.1316993483856241,-0.1552421140980662,-0.15485719655353333
-0.0006981317007977319,0.01815142422074103,0.08098327729253688,8.964912541666667,-0.0980665,-3.7919046666666665,-0.0018061069847893961,0.020939628389234327,0.07687705090744797,-0.02263898863383792,0.12333651052700809,0.06319543287778857,-0.0025346424912791586,-0.0006532845676867422,0.002582249591466989,-0.04452909333462527,-0.031100613335964006,0.011534800521316557
0.0041887902047863905,0.019547687622336492,0.07609635538695278,9.054806833333332,-0.032688833333333334,-3.8164212916666664,-0.0018061069847893961,0.020939628389234327,0.07687705090744797,-0.02263898863383792,0.12333651052700809,0.06319543287778857,0.0020956497419482288,-8.222315218034863e-06,0.00031306360885506194,0.016689943550310057,0.01781755547830906,-0.012804680728657003
0.0,0.019547687622336492,0.07539822368615504,9.022118,-0.06537766666666667,-3.7919046666666665,-0.0018061069847893961,0.020939628389234327,0.07687705090744797,-0.02263898863383792,0.12333651052700809,0.06319543287778857,0.001221651238438015,0.0015619508884091723,-0.0020618349556558585,-0.007802268784325626,0.001438553920647276,-0.00898520130456746
-0.0020943951023931952,0.016755160819145562,0.07958701389094143,9.038462416666666,-0.06537766666666667,-3.77556025,-0.0018061069847893961,0.020939628389234327,0.07687705090744797,-0.02263898863383792,0.12333651052700809,0.06319543287778857,-0.00011009475675769188,-0.001864369369616213,0.000930599477336076,0.008516750516789262,-0.014901777539639336,-0.004835092586345718
-0.0013962634015954637,0.02024581932313422,0.07749261878854824,9.022118,-0.032688833333333334,-3.7673880416666665,-0.0018061069847893961,0.020939628389234327,0.07687705090744797,-0.02263898863383792,0.12333651052700809,0.06319543287778857,-0.0004147093678775402,0.00037086672500104485,0.00029460568139930946,0.04114116932008898,0.005765527445920117,0.0034195655114674086
-0.0006981317007977319,0.019547687622336492,0.0767944870877505,8.940395916666665,-0.04086104166666667,-3.77556025,-0.0018061069847893961,0.020939628389234327,0.07687705090744797,-0.02263898863383792,0.12333651052700809,0.06319543287778857,0.002235809515079121,-0.0023174063313549293,0.0004373364484882737,-0.02813535611683881,0.0015048940006681015,0.019723372979157737
-0.005585053606381855,0.023736477827122883,0.07609635538695278,8.997601374999999,-0.04086104166666667,-3.8164212916666664,-0.0018061069847893961,0.020939628389234327,0.07687705090744797,-0.02263898863383792,0.12333651052700809,0.06319543287778857,0.00031005326287892254,0.003659018672290145,-0.0004304078188667676,0.012663421653012093,-0.006598940138117731,-0.016975088808072074
-0.006283185307179587,0.016755160819145562,0.07749261878854824,8.97308475,-0.024516625,-3.7837324583333327,-0.0018061069847893961,0.020939628389234327,0.07687705090744797,-0.02263898863383792,0.12333651052700809,0.06319543287778857,-0.002140289631068233,-0.0008987323053762321,0.00048796502272361307,-0.04879576387554521,0.013859910985365308,0.023752786699202787
-0.0020943951023931952,0.01884955592153876,0.07609635538695278,9.07115125,-0.04903325,-3.832765708333333,-0.0018061069847893961,0.020939628389234327,0.07687705090744797,-0.02263898863383792,0.12333651052700809,0.06319543287778857,-0.0005318654207444262,-0.0020214244081260707,-0.001378197832388254,0.029004646742313334,-0.002633077289585983,-0.0006766176635053029
-0.0006981317007977319,0.02234021442552742,0.07888888219014369,9.013945791666666,-0.04086104166666667,-3.832765708333333,-0.0018061069847893961,0.020939628389234327,0.07687705090744797,-0.02263898863383792,0.12333651052700809,0.06319543287778857,-0.00011464531786173827,0.0002790905455488064,-9.133828547919718e-05,-0.015972789164108544,-0.006799293345748538,-0.008760299011012721
-0.0006981317007977319,0.02234021442552742,0.07888888219014369,9.046634625,-0.024516625,-3.8164212916666664,-0.0018061069847893961,0.020939628389234327,0.07687705090744797,-0.02263898863383792,0.12333651052700809,0.06319543287778857,-0.0008446447291577016,0.0010138026536267541,-0.0012177543299647677,0.18705650044267785,-0.16512058075427818,-0.1763178199082406
0.0020943951023931952,0.019547687622336492,0.08307767239493008,8.956740333333332,-0.032688833333333334,-3.77556025,-0.0018061069847893961,0.020939628389234327,0.07687705090744797,-0.02263898863383792,0.12333651052700809,0.06319543287778857,0.00023919408775494974,0.0001428409586735611,0.0027278096366642906,-0.011771333017918226,-0.010868813571912512,-0.004959120282647647
0.0013962634015954637,0.01884955592153876,0.07819075048934597,8.981256958333333,-0.008172208333333333,-3.7673880416666665,-0.0018061069847893961,0.020939628389234327,0.07687705090744797,-0.02263898863383792,0.12333651052700809,0.06319543287778857,0.0024607630573714374,0.0010958586753795308,-0.0006475285619419073,0.01672831874790485,-0.00254452824731922,-0.008763291453756551
-0.003490658503988659,0.016057029118347832,0.07888888219014369,8.948568125,0.0,-3.751043625,-0.0018061069847893961,0.020939628389234327,0.07687705090744797,-0.02263898863383792,0.12333651052700809,0.06319543287778857,-0.0002767959122455084,-0.0007667539467875261,0.0010610104401195001,-0.052935503637861474,0.009563869190742013,0.019647145570195708
-0.003490658503988659,0.01815142422074103,0.0767944870877505,9.054806833333332,-0.016344416666666667,-3.7919046666666665,-0.0018061069847893961,0.020939628389234327,0.07687705090744797,-0.02263898863383792,0.12333651052700809,0.06319543287778857,-0.0005965031517825379,-5.026198971772245e-05,-0.0012652942737589005,0.04951988449041066,0.026031669652102685,0.0033418068810584615
-0.0020943951023931952,0.01815142422074103,0.07958701389094143,8.956740333333332,-0.06537766666666667,-3.800076875,-0.0018061069847893961,0.020939628389234327,0.07687705090744797,-0.02263898863383792,0.12333651052700809,0.06319543287778857,0.0007302770093197166,-0.0008228739142653132,0.0006183333794291299,-0.10191534380506401,-0.031232538183429474,0.01566086816462181
-0.003490658503988659,0.02024581932313422,0.07819075048934597,9.161045541666667,0.0,-3.832765708333333,-0.0018061069847893961,0.020939628389234327,0.07687705090744797,-0.02263898863383792,0.12333651052700809,0.06319543287778857,0.000401442056011376,-0.0003906463047789562,-0.0005257452578928838,0.08221465805972784,0.05067803085382847,-0.03746323581187785
-0.0041887902047863905,0.020943951023931952,0.07958701389094143,8.997601374999999,-0.0980665,-3.759215833333333,-0.0018061069847893961,0.020939628389234327,0.07687705090744797,-0.02263898863383792,0.12333651052700809,0.06319543287778857,-0.0008594388316229668,-0.0004731257563700597,0.0007074790808029853,-0.0445713260894468,-0.027271960373092798,0.011617628395466796
-0.0027925268031909274,0.021642082724729686,0.07749261878854824,9.087495666666666,-0.04086104166666667,-3.7837324583333327,-0.0018061069847893961,0.020939628389234327,0.07687705090744797,-0.02263898863383792,0.12333651052700809,0.06319543287778857,-0.002452166500492409,0.0020264743594069217,0.0003034618410053254,0.05747734827409671,-0.010544313762536632,-0.025146076115556096
0.0027925268031909274,0.017453292519943295,0.07749261878854824,8.97308475,-0.016344416666666667,-3.7346992083333332,-0.0018061069847893961,0.020939628389234327,0.07687705090744797,-0.02263898863383792,0.12333651052700809,0.06319543287778857,0.0016833901164694197,0.0004006427623077828,2.4699401267446562e-05,-0.05281752698817878,-0.023072103442960228,0.03600077862525779
-0.0006981317007977319,0.016755160819145562,0.0767944870877505,9.079323458333333,0.032688833333333334,-3.8082490833333327,-0.0018061069847893961,0.020939628389234327,0.07687705090744797,-0.02263898863383792,0.12333651052700809,0.06319543287778857,2.4060649805928527e-05,-0.0037611054867859378,-0.00036779739135889413,0.1813621744979137,-0.11661492489475672,-0.14202674876067553
0.0,0.023038346126325153,0.07958701389094143,8.997601374999999,-0.04086104166666667,-3.8245934999999998,-0.0018061069847893961,0.020939628389234327,0.07687705090744797,-0.02263898863383792,0.12333651052700809,0.06319543287778857,0.001953882755107558,-0.0005457206248691028,0.0010580390918974668,-0.061084261367962515,-0.010834488431165048,0.007564263375431295
-0.0041887902047863905,0.024434609527920613,0.07749261878854824,9.1201845,-0.016344416666666667,-3.8409379166666664,-0.0018061069847893961,0.020939628389234327,0.07687705090744797,-0.02263898863383792,0.12333651052700809,0.06319543287778857,0.0010491585358736706,0.0015293100722950667,-0.0007809001854911053,0.09444835156717034,0.021949400331443304,-0.016978648704146372
-0.006283185307179587,0.020943951023931952,0.07888888219014369,8.932223708333334,-0.057205458333333334,-3.8082490833333327,-0.0018061069847893961,0.020939628389234327,0.07687705090744797,-0.02263898863383792,0.12333651052700809,0.06319543287778857,-0.000475593368116499,0.0018705495577661575,0.0018927905887296365,-0.05680453406416748,-0.0024325919348821565,0.007329873913475324
-0.004886921905584123,0.017453292519943295,0.07539822368615504,9.046634625,-0.04903325,-3.8245934999999998,-0.0018061069847893961,0.020939628389234327,0.07687705090744797,-0.02263898863383792,0.12333651052700809,0.06319543287778857,-0.000514710548219136,-0.0021468395204906213,0.0008739471603804053,0.07381611576087457,0.017980261803934985,-0.033196115142521396
-0.0041887902047863905,0.021642082724729686,0.07400196028455958,8.899534874999999,-0.08172208333333333,-3.759215833333333,-0.0018061069847893961,0.020939628389234327,0.07687705090744797,-0.02263898863383792,0.12333651052700809,0.06319543287778857,-0.00029636231343848474,0.0033824383179287803,-0.0023257264504857717,-0.052740604052121706,-0.014881753891381808,0.015599717262035635
-0.003490658503988659,0.014660765716752367,0.07819075048934597,9.005773583333333,-0.04903325,-3.7919046666666665,-0.0018061069847893961,0.020939628389234327,0.07687705090744797,-0.02263898863383792,0.12333651052700809,0.06319543287778857,-0.0015594974989437147,-0.0016441112914577336,0.0003809744636063519,-0.024186569698259833,0.0014533146875898057,0.011457624276077731
-0.0006981317007977319,0.01815142422074103,0.07749261878854824,9.054806833333332,-0.04903325,-3.8164212916666664,-0.0018061069847893961,0.020939628389234327,0.07687705090744797,-0.02263898863383792,0.12333651052700809,0.06319543287778857,-0.001138532477969957,-0.0009015331131720226,0.00021742002125161507,-0.011815601404678572,-0.006618264773684923,0.015506530910044765
0.0020943951023931952,0.02024581932313422,0.0767944870877505,9.079323458333333,-0.032688833333333334,-3.8491101249999997,-0.0018061069847893961,0.020939628389234327,0.07687705090744797,-0.02263898863383792,0.12333651052700809,0.06319543287778857,0.0015869854714319841,-0.0020663262004446997,-0.001196365849847648,0.028970569498433428,-0.01483712642982989,-0.02498373835183223
-0.0013962634015954637,0.024434609527920613,0.07958701389094143,9.022118,0.0,-3.800076875,-0.0018061069847893961,0.020939628389234327,0.07687705090744797,-0.02263898863383792,0.12333651052700809,0.06319543287778857,0.0014931882374770327,0.0006947862601202917,0.0006064785588387216,0.15128480637651326,-0.12121255641730062,-0.1518767623314868
-0.003490658503988659,0.02234021442552742,0.08028514559173915,9.005773583333333,-0.04086104166666667,-3.7919046666666665,-0.0018061069847893961,0.020939628389234327,0.07687705090744797,-0.02263898863383792,0.12333651052700809,0.06319543287778857,-0.00031927788347768974,0.0006261705255281187,-0.0006389543709507563,0.06586892327576169,0.009801899980488303,-0.017032163321435416
-0.0027925268031909274,0.020943951023931952,0.08098327729253688,8.87501825,-0.057205458333333334,-3.759215833333333,-0.0018061069847893961,0.020939628389234327,0.07687705090744797,-0.02263898863383792,0.12333651052700809,0.06319543287778857,-0.0010637375419952453,0.0024672884976497775,-0.001494014961084847,-0.04882276787402153,0.005318969802252088,-0.0006776030733417588
-0.0006981317007977319,0.016057029118347832,0.08377580409572781,8.97308475,-0.06537766666666667,-3.759215833333333,-0.0018061069847893961,0.020939628389234327,0.07687705090744797,-0.02263898863383792,0.12333651052700809,0.06319543287778857,0.0006162271089753382,-0.003467825694242803,0.0018720032092403244,-0.019900752651491427,-0.014746003780328492,0.027834799565650426
-0.0020943951023931952,0.02234021442552742,0.08098327729253688,9.013945791666666,-0.032688833333333334,-3.8164212916666664,-0.0018061069847893961,0.020939628389234327,0.07687705090744797,-0.02263898863383792,0.12333651052700809,0.06319543287778857,-0.0003442650542189381,0.0019769867217612888,0.0006480680991325322,-0.012014942858585323,0.005408275831515752,0.0034404619010647403
-0.0013962634015954637,0.01884955592153876,0.07888888219014369,9.038462416666666,-0.04086104166666667,-3.8245934999999998,-0.0018061069847893961,0.020939628389234327,0.07687705090744797,-0.02263898863383792,0.12333651052700809,0.06319543287778857,0.0009286061080557317,-0.0008073496968181542,0.0019404721571675122,-0.044452214260179375,-0.0026010828414319946,0.0034420537960368172
-0.003490658503988659,0.02024581932313422,0.07539822368615504,9.128356708333332,-0.032688833333333334,-3.832765708333333,-0.0018061069847893961,0.020939628389234327,0.07687705090744797,-0.02263898863383792,0.12333651052700809,0.06319543287778857,-0.0015857162792452006,0.002137459364598459,-0.003752090701479289,0.0739113752489894,0.009823911637539394,-0.021243534211963903
0.0,0.016057029118347832,0.08307767239493008,8.981256958333333,-0.04903325,-3.7919046666666665,-0.0018061069847893961,0.020939628389234327,0.07687705090744797,-0.02263898863383792,0.12333651052700809,0.06319543287778857,0.0005269954354817233,-0.003579542412060245,0.002362102566216929,-0.016064671251154246,-0.015124732124216672,-0.0006035536239458284
-0.0006981317007977319,0.023038346126325153,0.07819075048934597,9.013945791666666,-0.016344416666666667,-3.7919046666666665,-0.0018061069847893961,0.020939628389234327,0.07687705090744797,-0.02263898863383792,0.12333651052700809,0.06319543287778857,-0.0002329093189027376,-0.0006060610350988494,0.0012575445973711616,0.02085315374716427,-0.00246181740823076,-0.000611449994863485
-0.0006981317007977319,0.024434609527920613,0.07539822368615504,8.97308475,-0.008172208333333333,-3.7919046666666665,-0.0018061069847893961,0.020939628389234327,0.07687705090744797,-0.02263898863383792,0.12333651052700809,0.06319543287778857,0.001543676534088228,0.0026565754421882214,8.993782936255791e-05,-0.015950030455575102,-0.0065994062321799675,-0.004892957497290595
-0.003490658503988659,0.01884955592153876,0.07539822368615504,9.005773583333333,0.008172208333333333,-3.7837324583333327,-0.0018061069847893961,0.020939628389234327,0.07687705090744797,-0.02263898863383792,0.12333651052700809,0.06319543287778857,0.00023864094920755482,0.0025240670948907286,0.0013556976465416784,0.14220205179986994,-0.12049178853513892,-0.1441788053216445
-0.003490658503988659,0.013264502315156905,0.0747000919853573,9.022118,-0.016344416666666667,-3.7919046666666665,-0.0018061069847893961,0.020939628389234327,0.07687705090744797,-0.02263898863383792,0.12333651052700809,0.06319543287778857,0.0005410655981799991,-0.0034505048473370595,0.00019015793901125606,-0.036378845157000975,-0.010637251665406522,-0.0007128043407822258
-0.0041887902047863905,0.019547687622336492,0.07400196028455958,9.095667875,0.008172208333333333,-3.7919046666666665,-0.0018061069847893961,0.020939628389234327,0.07687705090744797,-0.02263898863383792,0.12333651052700809,0.06319543287778857,-0.0008282928844312618,-0.0013435828544826835,0.00029471590404415104,0.049300597485285744,0.05052699338048696,-0.012961547454735631
-0.0027925268031909274,0.02234021442552742,0.07330382858376185,8.997601374999999,-0.08989429166666667,-3.7673880416666665,-0.0018061069847893961,0.020939628389234327,0.07687705090744797,-0.02263898863383792,0.12333651052700809,0.06319543287778857,-0.0013951283690008134,-0.0022442627038335547,-0.00022435029385171497,-0.019934889904839038,-0.006566691942744956,0.0281219891347423
0.0,0.02722713633111154,0.07400196028455958,9.038462416666666,-0.07354987499999999,-3.8245934999999998,-0.0018061069847893961,0.020939628389234327,0.07687705090744797,-0.02263898863383792,0.12333651052700809,0.06319543287778857,-0.0007086603473762881,-0.001165962350668236,-0.0026904288194819163,0.07806702834172438,-0.018819749598261177,-0.03315699726272186
0.0013962634015954637,0.029321531433504733,0.07958701389094143,8.883190458333333,-0.032688833333333334,-3.759215833333333,-0.0018061069847893961,0.020939628389234327,0.07687705090744797,-0.02263898863383792,0.12333651052700809,0.06319543287778857,-0.00016531417206680206,0.0032049929560777554,0.001705803254330945,-0.06089864410182794,0.0014361077533871427,0.015661549972788208
0.0013962634015954637,0.023038346126325153,0.07609635538695278,9.005773583333333,-0.032688833333333334,-3.7919046666666665,-0.0018061069847893961,0.020939628389234327,0.07687705090744797,-0.02263898863383792,0.12333651052700809,0.06319543287778857,0.0018455449218985165,0.000531943709808012,0.001518938304069433,0.057711025517908666,-0.006587069707157481,-0.016854100663220146
-0.0020943951023931952,0.02234021442552742,0.07330382858376185,8.891362666666666,-0.016344416666666667,-3.759215833333333,-0.0018061069847893961,0.020939628389234327,0.07687705090744797,-0.02263898863383792,0.12333651052700809,0.06319543287778857,0.0001662364566768327,0.00116236602171259,-5.5550980908356604e-05,-0.08143825561359888,-0.03508889831291277,0.044237517098665094
-0.0020943951023931952,0.019547687622336492,0.07330382858376185,9.054806833333332,0.057205458333333334,-3.8491101249999997,-0.0018061069847893961,0.020939628389234327,0.07687705090744797,-0.02263898863383792,0.12333651052700809,0.06319543287778857,-0.0015589696695691264,-0.000947573727148003,-0.0003316540462904759,0.041186773846403756,0.05466827684059005,-0.008905479905688532
0.0006981317007977319,0.021642082724729686,0.07400196028455958,8.97308475,-0.04903325,-3.832765708333333,-0.0018061069847893961,0.020939628389234327,0.07687705090744797,-0.02263898863383792,0.12333651052700809,0.06319543287778857,0.0006802680207410024,-0.0014459902359487558,-0.000878002942742609,-0.06479767514871557,-0.010751682589066787,-0.004662099418184452
-0.0006981317007977319,0.024434609527920613,0.07539822368615504,9.103840083333333,-0.024516625,-3.8245934999999998,-0.0018061069847893961,0.020939628389234327,0.07687705090744797,-0.02263898863383792,0.12333651052700809,0.06319543287778857,-1.5486801010354593e-05,-0.0010819936231425138,-0.0022780547859904896,0.06562068676587149,0.021910539525728107,-0.01698592553187432
-0.0006981317007977319,0.02652900463031381,0.07958701389094143,8.97308475,-0.06537766666666667,-3.7919046666666665,-0.0018061069847893961,0.020939628389234327,0.07687705090744797,-0.02263898863383792,0.12333651052700809,0.06319543287778857,0.0009895902674328537,0.0016292215402176624,0.0023682407132925194,0.13199603065378182,-0.1315474984710831,-0.1530875095864393
-0.0013962634015954637,0.02234021442552742,0.07749261878854824,9.046634625,-0.06537766666666667,-3.800076875,-0.0018061069847893961,0.020939628389234327,0.07687705090744797,-0.02263898863383792,0.12333651052700809,0.06319543287778857,-0.0009930367644285665,0.0009746889208785167,0.000764573740170154,0.08623028209851112,0.0014635501450946126,-0.008642793963486656
0.0006981317007977319,0.02024581932313422,0.07609635538695278,8.87501825,-0.06537766666666667,-3.7837324583333327,-0.0018061069847893961,0.020939628389234327,0.07687705090744797,-0.02263898863383792,0.12333651052700809,0.06319543287778857,0.000985145430828056,0.002944780875290731,-0.0002461047539966662,-0.09772262360210947,-0.02702211052420734,0.007432798552619548
-0.0013962634015954637,0.014660765716752367,0.07609635538695278,9.07115125,-0.008172208333333333,-3.800076875,-0.0018061069847893961,0.020939628389234327,0.07687705090744797,-0.02263898863383792,0.12333651052700809,0.06319543287778857,-0.0005624584094226277,-0.002569518669822217,0.0005503740597253513,0.024864859524570775,0.01380980263707158,-0.000758753946799155
0.0,0.019547687622336492,0.07539822368615504,9.022118,-0.032688833333333334,-3.800076875,-0.0018061069847893961,0.020939628389234327,0.07687705090744797,-0.02263898863383792,0.12333651052700809,0.06319543287778857,0.00013681184556414716,-0.0012855021808965202,0.0017029560917890235,-0.0405599161484675,-0.006642143154681861,0.019801821861770926
-0.0006981317007977319,0.02234021442552742,0.07190756518216637,9.103840083333333,-0.016344416666666667,-3.8409379166666664,-0.0018061069847893961,0.020939628389234327,0.07687705090744797,-0.02263898863383792,0.12333651052700809,0.06319543287778857,0.0005757576749210741,-0.0012308249518162334,-0.0023489223282465426,0.029026799539040613,0.0015526839786967487,-0.029319585691597507
-0.0020943951023931952,0.024434609527920613,0.07609635538695278,9.046634625,-0.016344416666666667,-3.7837324583333327,-0.0018061069847893961,0.020939628389234327,0.07687705090744797,-0.02263898863383792,0.12333651052700809,0.06319543287778857,0.00026112398163914246,0.0010788634877321641,0.00020911245670533933,-0.0200774421354877,0.0015944230263586863,0.00759491012542387
-0.0020943951023931952,0.02234021442552742,0.07609635538695278,9.087495666666666,-0.016344416666666667,-3.800076875,-0.0018061069847893961,0.020939628389234327,0.07687705090744797,-0.02263898863383792,0.12333651052700809,0.06319543287778857,6.144838335123381e-05,-0.0014490188153184287,-0.00015378560746685352,0.025021058825615516,0.03423545125604153,-0.02099634470446113
-0.0020943951023931952,0.025132741228718346,0.07609635538695278,9.038462416666666,-0.08172208333333333,-3.759215833333333,-0.0018061069847893961,0.020939628389234327,0.07687705090744797,-0.02263898863383792,0.12333651052700809,0.06319543287778857,0.0009254261995532915,0.0052787835244626,0.0006810860152713928,-0.04882490543616533,-0.027032006530965217,0.007393580430301291
-0.0041887902047863905,0.014660765716752367,0.07539822368615504,9.136528916666666,-0.024516625,-3.77556025,-0.0018061069847893961,0.020939628389234327,0.07687705090744797,-0.02263898863383792,0.12333651052700809,0.06319543287778857,-0.0010233303001074834,-0.0029739026632148655,0.0005262218119197441,0.21626786654725014,-0.09153956000776281,-0.12404790532907681
-0.0013962634015954637,0.02024581932313422,0.07609635538695278,9.030290208333332,-0.06537766666666667,-3.8164212916666664,-0.0018061069847893961,0.020939628389234327,0.07687705090744797,-0.02263898863383792,0.12333651052700809,0.06319543287778857,4.3526868649773845e-05,0.0009170133138058833,-0.0014405827557023082,-0.007908816588855467,-0.014836444716434869,-0.01708937618420971
-0.0013962634015954637,0.01815142422074103,0.07888888219014369,9.046634625,-0.032688833333333334,-3.7837324583333327,-0.0018061069847893961,0.020939628389234327,0.07687705090744797,-0.02263898863383792,0.12333651052700809,0.06319543287778857,-0.001817961977359912,-0.00452631951033443,-0.0005487109356303703,-0.019986113229157894,-0.010873849558961679,-0.0005079162795464784
0.0020943951023931952,0.02652900463031381,0.08028514559173915,9.087495666666666,-0.008172208333333333,-3.7837324583333327,-0.0018061069847893961,0.020939628389234327,0.07687705090744797,-0.02263898863383792,0.12333651052700809,0.06319543287778857,-0.0011368327283926307,0.0025802658672014183,-0.0021027752964241104,0.028984201296268212,-0.0067951273089229556,0.015758102553592668
0.0041887902047863905,0.021642082724729686,0.08377580409572781,9.030290208333332,0.008172208333333333,-3.8164212916666664,-0.0018061069847893961,0.020939628389234327,0.07687705090744797,-0.02263898863383792,0.12333651052700809,0.06319543287778857,0.0007817145549707884,0.0015500755456510575,0.002172128831221072,0.008523529933070114,0.0014657983622818657,-0.02120780075825293
0.0027925268031909274,0.01815142422074103,0.07958701389094143,9.013945791666666,0.008172208333333333,-3.77556025,-0.0018061069847893961,0.020939628389234327,0.07687705090744797,-0.02263898863383792,0.12333651052700809,0.06319543287778857,-7.052733039026949e-05,0.0006168538843894791,-0.0014139456503246969,0.004353054981858984,0.013547693921375368,0.0033603638828204247
0.0027925268031909274,0.017453292519943295,0.08237954069413235,9.005773583333333,-0.016344416666666667,-3.7837324583333327,-0.0018061069847893961,0.020939628389234327,0.07687705090744797,-0.02263898863383792,0.12333651052700809,0.06319543287778857,0.0032945929431867534,-0.0010811954144900585,0.003378063922533085,-0.007736716716122889,0.0015053769220810906,-0.008880911643947538
-0.003490658503988659,0.019547687622336492,0.07609635538695278,9.022118,-0.016344416666666667,-3.7673880416666665,-0.0018061069847893961,0.020939628389234327,0.07687705090744797,-0.02263898863383792,0.12333651052700809,0.06319543287778857,-0.0007928746314765527,-0.001045536923120511,-0.0014668716685324549,0.024857778628778963,0.009683273039517585,0.003442152475887393
-0.0020943951023931952,0.021642082724729686,0.07888888219014369,8.97308475,-0.032688833333333334,-3.77556025,-0.0018061069847893961,0.020939628389234327,0.07687705090744797,-0.02263898863383792,0.12333651052700809,0.06319543287778857,4.001298382027305e-05,-0.00026072017513928435,0.000496457454223682,-0.02418650791465955,0.005654442014554031,0.019770857550468316
-0.0020943951023931952,0.021642082724729686,0.07749261878854824,9.022118,-0.04086104166666667,-3.8164212916666664,-0.0018061069847893961,0.020939628389234327,0.07687705090744797,-0.02263898863383792,0.12333651052700809,0.06319543287778857,5.978516759355625e-06,0.0008059815691167707,0.00017306909821507405,0.0005240783012637809,0.02603112131690302,-0.02111933808888223
-0.0020943951023931952,0.020943951023931952,0.07749261878854824,9.022118,-0.08989429166666667,-3.77556025,-0.0018061069847893961,0.020939628389234327,0.07687705090744797,-0.02263898863383792,0.12333651052700809,0.06319543287778857,-5.230777331723352e-05,-0.0012675236745588205,0.0018215575934229327,-0.016053247893596165,-0.014977789251508639,0.007562410876274868
-0.0020943951023931952,0.023038346126325153,0.07330382858376185,9.054806833333332,-0.057205458333333334,-3.7919046666666665,-0.0018061069847893961,0.020939628389234327,0.07687705090744797,-0.02263898863383792,0.12333651052700809,0.06319543287778857,-0.0014453671367137958,0.0009656165705180697,-0.0009107451040721809,0.049540626408072296,-0.002306432482483042,-0.0006779915656900807
0.0006981317007977319,0.021642082724729686,0.07539822368615504,8.956740333333332,-0.04903325,-3.7919046666666665,-0.0018061069847893961,0.020939628389234327,0.07687705090744797,-0.02263898863383792,0.12333651052700809,0.06319543287778857,0.001216906081238837,-9.166611195249235e-05,0.0017296634746976239,-0.05285032813451449,-0.022988487276149064,0.007651761048785023
-0.0013962634015954637,0.021642082724729686,0.07190756518216637,9.062979041666667,0.0,-3.8082490833333327,-0.0018061069847893961,0.020939628389234327,0.07687705090744797,-0.02263898863383792,0.12333651052700809,0.06319543287778857,0.0017237875176990276,-0.0011381645857764505,-0.0015374022860868062,0.07403570713429987,0.01790687426036562,-0.02931838317339565
-0.004886921905584123,0.023736477827122883,0.07539822368615504,8.915879291666666,-0.032688833333333334,-3.751043625,-0.0018061069847893961,0.020939628389234327,0.07687705090744797,-0.02263898863383792,0.12333651052700809,0.06319543287778857,0.0007167487663223828,0.0010685780981528658,-0.00049272606794265,-0.06502036895166323,-0.018710325229933825,0.04029094811875791
-0.006981317007977318,0.021642082724729686,0.07609635538695278,9.046634625,0.008172208333333333,-3.832765708333333,-0.0018061069847893961,0.020939628389234327,0.07687705090744797,-0.02263898863383792,0.12333651052700809,0.06319543287778857,-0.0010831925134065067,-0.0009223635673433604,-0.00023707248622665107,0.04940617462244136,0.06269029851603787,-0.017032204595731133
-0.0041887902047863905,0.023038346126325153,0.0767944870877505,8.948568125,-0.11441091666666667,-3.800076875,-0.0018061069847893961,0.020939628389234327,0.07687705090744797,-0.02263898863383792,0.12333651052700809,0.06319543287778857,2.7796193142000656e-05,0.0006545355085254171,0.00041935261212381144,-0.04035282078285606,-0.00649467874380842,0.0034767087244188624
-0.0041887902047863905,0.02234021442552742,0.07539822368615504,9.030290208333332,-0.0980665,-3.8082490833333327,-0.0018061069847893961,0.020939628389234327,0.07687705090744797,-0.02263898863383792,0.12333651052700809,0.06319543287778857,-0.0007336022428720216,-0.0007289520076407349,-0.000836864278316866,0.03716868912915458,0.005686006119260181,-0.01694687744684067
-0.0027925268031909274,0.023038346126325153,0.07749261878854824,8.956740333333332,-0.10623870833333333,-3.77556025,-0.0018061069847893961,0.020939628389234327,0.07687705090744797,-0.02263898863383792,0.12333651052700809,0.06319543287778857,-0.00010442009222747634,0.0018805198434390727,-0.0013779756280652552,-0.04879839810753428,-0.0027729676611380543,0.00752824237120148
-0.0027925268031909274,0.019547687622336492,0.07958701389094143,9.054806833333332,-0.0980665,-3.7919046666666665,-0.0018061069847893961,0.020939628389234327,0.07687705090744797,-0.02263898863383792,0.12333651052700809,0.06319543287778857,-0.0023501795837437642,0.0008054847756625224,0.0009841117269331755,0.0657210745601074,0.0016482289137825655,0.007499516695294444
0.0020943951023931952,0.01815142422074103,0.07819075048934597,8.9240515,-0.0980665,-3.8082490833333327,-0.0018061069847893961,0.020939628389234327,0.07687705090744797,-0.02263898863383792,0.12333651052700809,0.06319543287778857,-0.0011111479229836561,-0.0002975958607939488,0.0005883662856689913,-0.08948989619664345,-0.05587359898324331,0.02377133007294371
0.0041887902047863905,0.01884955592153876,0.0767944870877505,9.103840083333333,0.016344416666666667,-3.857282333333333,-0.0018061069847893961,0.020939628389234327,0.07687705090744797,-0.02263898863383792,0.12333651052700809,0.06319543287778857,0.0015928487497967416,-0.0012788016621003563,0.000449531694305729,0.4335695745487517,-0.17683268092454021,-0.29792748111687817
0.0027925268031909274,0.01884955592153876,0.08028514559173915,8.956740333333332,-0.04086104166666667,-3.857282333333333,-0.0018061069847893961,0.020939628389234327,0.07687705090744797,-0.02263898863383792,0.12333651052700809,0.06319543287778857,-0.00024154551279597538,-0.002178969397234959,-0.0019331465473639753,-0.08133239675745911,-0.027172497841249588,-0.004672637310563596
0.003490658503988659,0.023736477827122883,0.08447393579652555,9.1201845,0.016344416666666667,-3.8491101249999997,-0.0018061069847893961,0.020939628389234327,0.07687705090744797,-0.02263898863383792,0.12333651052700809,0.06319543287778857,0.002625961353947602,-0.0011543335833821959,0.0023536359336217773,0.06173798543962089,0.017678573527485975,-0.02088136685569134
-0.0020943951023931952,0.02583087292951608,0.07958701389094143,8.997601374999999,-0.016344416666666667,-3.8082490833333327,-0.0018061069847893961,0.020939628389234327,0.07687705090744797,-0.02263898863383792,0.12333651052700809,0.06319543287778857,-0.0007245079243639827,0.0033523091386806355,-0.0012476589686827575,-0.06089693622205311,0.0015347479507348983,0.015648462326066002
-0.0006981317007977319,0.01884955592153876,0.08237954069413235,9.1201845,-0.016344416666666667,-3.8409379166666664,-0.0018061069847893961,0.020939628389234327,0.07687705090744797,-0.02263898863383792,0.12333651052700809,0.06319543287778857,0.0013205436797916064,-0.0008369196291533365,0.0026500815918242787,0.03296680525090501,0.001386557308698913,-0.021178091057487306
-0.0027925268031909274,0.02024581932313422,0.0767944870877505,9.054806833333332,-0.016344416666666667,-3.800076875,-0.0018061069847893961,0.020939628389234327,0.07687705090744797,-0.02263898863383792,0.12333651052700809,0.06319543287778857,-0.0006779407704364301,0.0031354522739144254,-0.0006857027366143716,0.012738935925204819,0.009548891532765572,-0.01295641586906553
-0.0020943951023931952,0.013962634015954637,0.07819075048934597,9.030290208333332,-0.032688833333333334,-3.77556025,-0.0018061069847893961,0.020939628389234327,0.07687705090744797,-0.02263898863383792,0.12333651052700809,0.06319543287778857,-0.0003528063407635006,-0.002211458017887529,0.0013251998701873074,-0.03651370846053404,-0.002498911203471701,-0.0007501863374542266
-0.0013962634015954637,0.01884955592153876,0.07539822368615504,9.103840083333333,-0.024516625,-3.77556025,-0.0018061069847893961,0.020939628389234327,0.07687705090744797,-0.02263898863383792,0.12333651052700809,0.06319543287778857,0.00012976921905893035,0.0015322050372176032,-0.0011970031958831392,-0.01181739163981542,0.009874623960071702,0.0033254740183532227
-0.0013962634015954637,0.0153588974175501,0.07749261878854824,9.128356708333332,-0.04086104166666667,-3.7837324583333327,-0.0018061069847893961,0.020939628389234327,0.07687705090744797,-0.02263898863383792,0.12333651052700809,0.06319543287778857,-0.0011347002186037473,-0.0032166192103127407,0.00047572707836319967,-0.00786974894784723,-0.01495166989695061,0.015585943557735219
0.0006981317007977319,0.02234021442552742,0.0767944870877505,9.144701125,-0.008172208333333333,-3.8164212916666664,-0.0018061069847893961,0.020939628389234327,0.07687705090744797,-0.02263898863383792,0.12333651052700809,0.06319543287778857,0.0015429486643633993,0.00028182230671112247,-0.000305364905320459,0.05357761525633684,0.005584789201682699,-0.008725494533946616
-0.0020943951023931952,0.021642082724729686,0.07749261878854824,9.038462416666666,-0.016344416666666667,-3.800076875,-0.0018061069847893961,0.020939628389234327,0.07687705090744797,-0.02263898863383792,0.12333651052700809,0.06319543287778857,0.0010663600998903479,-0.0015305543507148239,0.0017000410804466758,0.19612590699754606,-0.11173364236686534,-0.1614737696658251
-0.003490658503988659,0.023038346126325153,0.07609635538695278,9.013945791666666,0.008172208333333333,-3.77556025,-0.0018061069847893961,0.020939628389234327,0.07687705090744797,-0.02263898863383792,0.12333651052700809,0.06319543287778857,0.0005594707821757201,0.002698562890788334,-0.000575798115122566,-0.011787213286495993,-0.026952836856468113,-0.013055929319743424
-0.0041887902047863905,0.01815142422074103,0.07749261878854824,9.038462416666666,0.06537766666666667,-3.751043625,-0.0018061069847893961,0.020939628389234327,0.07687705090744797,-0.02263898863383792,0.12333651052700809,0.06319543287778857,0.00110013428957974,-0.00220489815119304,0.0005677957675615071,0.016709225170646193,0.03002854026953943,0.003483370632543066
-0.006283185307179587,0.02234021442552742,0.07609635538695278,9.005773583333333,0.008172208333333333,-3.759215833333333,-0.0018061069847893961,0.020939628389234327,0.07687705090744797,-0.02263898863383792,0.12333651052700809,0.06319543287778857,0.0013142313183212102,0.004104745330294205,-0.004212850318580832,-0.03231594025110573,0.038344946239545194,0.007473870666193034
-0.009075712110370514,0.013962634015954637,0.08517206749732328,9.07115125,-0.06537766666666667,-3.77556025,-0.0018061069847893961,0.020939628389234327,0.07687705090744797,-0.02263898863383792,0.12333651052700809,0.06319543287778857,0.0027854118525144503,-0.003358595583601137,-0.001537248105418483,-0.07333025932382402,0.0013736616470101759,0.01962103452812531
-0.014660765716752367,0.020943951023931952,0.0879645943005142,9.218250999999999,-0.06537766666666667,-3.8164212916666664,-0.0018061069847893961,0.020939628389234327,0.07687705090744797,-0.02263898863383792,0.12333651052700809,0.06319543287778857,0.0007198223418077093,-0.0017242303161014588,-0.002062216425889726,0.12312218284062543,0.09945629604650147,-0.03735956420051453
-0.016057029118347832,0.024434609527920613,0.09215338450530061,8.97308475,-0.26151066666666667,-3.742871416666666,-0.0018061069847893961,0.020939628389234327,0.07687705090744797,-0.02263898863383792,0.12333651052700809,0.06319543287778857,-0.0026933287295276684,0.00128230768046914,-0.003283722539596753,0.05749278293457954,0.021552954584988824,-0.017039352084628596
