angular_velocity_x,angular_velocity_y,angular_velocity_z,linear_acceleration_x,linear_acceleration_y,linear_acceleration_z,fake_gyro_bias_x,fake_gyro_bias_y,fake_gyro_bias_z,fake_acc_bias_x,fake_acc_bias_y,fake_acc_bias_z,fake_gyro_noise_x,gyro_noise_y,gyro_noise_z,fake_acc_noise_x,fake_acc_noise_y,fake_acc_noise_z
0.04956735075663895,0.031415926535897934,0.07330382858376185,9.349006333333334,-0.024516625,-2.574245625,-0.0015800622834682627,0.024677056625632496,0.08053519938417311,-0.015811447058436387,0.08157742009098021,0.04112693100690768,0.0,0.0,0.0,0.0,0.0,0.0
0.03769911184307752,0.02024581932313422,0.07400196028455958,9.569655958333334,0.35957716666666667,-2.8602729166666667,-0.0015800622834682627,0.024677056625632496,0.08053519938417311,-0.015811447058436387,0.08157742009098021,0.04112693100690768,0.0,0.0,0.0,0.0,0.0,0.0
0.0041887902047863905,0.033510321638291124,0.08377580409572781,9.136528916666666,0.5148491249999999,-2.3944570416666666,-0.0015800622834682627,0.024677056625632496,0.08053519938417311,-0.015811447058436387,0.08157742009098021,0.04112693100690768,0.0,0.0,0.0,0.0,0.0,0.0
-0.0307177948351002,0.013962634015954637,0.08936085770210968,9.561483749999999,0.318716125,-2.827584083333333,-0.0015800622834682627,0.024677056625632496,0.08053519938417311,-0.015811447058436387,0.08157742009098021,0.04112693100690768,0.0,0.0,0.0,0.0,0.0,0.0
-0.04817108735504349,0.033510321638291124,0.08377580409572781,9.667722458333333,0.04903325,-2.8194118749999997,-0.0015800622834682627,0.024677056625632496,0.08053519938417311,-0.015811447058436387,0.08157742009098021,0.04112693100690768,0.0,0.0,0.0,0.0,0.0,0.0
-0.04956735075663895,0.02652900463031381,0.09145525280450287,9.455245041666666,-0.24516625,-2.803067458333333,-0.0015800622834682627,0.024677056625632496,0.08053519938417311,-0.015811447058436387,0.08157742009098021,0.04112693100690768,0.0,0.0,0.0,0.0,0.0,0.0
-0.032114058236695664,0.04049163864626844,0.07888888219014369,9.430728416666666,-0.661948875,-2.672312125,-0.0015800622834682627,0.024677056625632496,0.08053519938417311,-0.015811447058436387,0.08157742009098021,0.04112693100690768,0.0,0.0,0.0,0.0,0.0,0.0
0.0041887902047863905,0.024434609527920613,0.08936085770210968,9.095667875,-0.8253930416666666,-2.40262925,-0.0015800622834682627,0.024677056625632496,0.08053519938417311,-0.015811447058436387,0.08157742009098021,0.04112693100690768,0.0,0.0,0.0,0.0,0.0,0.0
0.03630284844148206,0.023736477827122883,0.08377580409572781,9.5124505,-0.563882375,-2.6641399166666666,-0.0015800622834682627,0.024677056625632496,0.08053519938417311,-0.015811447058436387,0.08157742009098021,0.04112693100690768,0.0,0.0,0.0,0.0,0.0,0.0
0.05585053606381855,0.020943951023931952,0.08936085770210968,9.193734375,-0.13892754166666665,-2.427145875,-0.0015800622834682627,0.024677056625632496,0.08053519938417311,-0.015811447058436387,0.08157742009098021,0.04112693100690768,0.0,0.0,0.0,0.0,0.0,0.0
0.04258603374866164,0.013962634015954637,0.08587019919812101,9.561483749999999,0.318716125,-2.6641399166666666,-0.0015800622834682627,0.024677056625632496,0.08053519938417311,-0.015811447058436387,0.08157742009098021,0.04112693100690768,0.0,0.0,0.0,0.0,0.0,0.0
0.013264502315156905,0.01815142422074103,0.08517206749732328,9.299973083333333,0.4903325,-2.5905900416666663,-0.0015800622834682627,0.024677056625632496,0.08053519938417311,-0.015811447058436387,0.08157742009098021,0.04112693100690768,0.0,0.0,0.0,0.0,0.0,0.0
-0.01884955592153876,0.013962634015954637,0.08447393579652555,9.594172583333334,0.5230213333333333,-2.8766173333333334,-0.0015800622834682627,0.024677056625632496,0.08053519938417311,-0.015811447058436387,0.08157742009098021,0.04112693100690768,0.0,0.0,0.0,0.0,0.0,0.0
-0.03630284844148206,0.027925268031909273,0.08517206749732328,9.299973083333333,0.122583125,-2.6641399166666666,-0.0015800622834682627,0.024677056625632496,0.08053519938417311,-0.015811447058436387,0.08157742009098021,0.04112693100690768,0.0,0.0,0.0,0.0,0.0,0.0
-0.0439822971502571,0.025132741228718346,0.08447393579652555,9.520622708333333,-0.269682875,-2.8766173333333334,-0.0015800622834682627,0.024677056625632496,0.08053519938417311,-0.015811447058436387,0.08157742009098021,0.04112693100690768,0.0,0.0,0.0,0.0,0.0,0.0
-0.028623399732707,0.041887902047863905,0.0747000919853573,9.36535075,-0.5557101666666666,-2.549729,-0.0015800622834682627,0.024677056625632496,0.08053519938417311,-0.015811447058436387,0.08157742009098021,0.04112693100690768,0.0,0.0,0.0,0.0,0.0,0.0
0.0013962634015954637,0.02024581932313422,0.08447393579652555,9.210078791666666,-0.7028099166666667,-2.59876225,-0.0015800622834682627,0.024677056625632496,0.08053519938417311,-0.015811447058436387,0.08157742009098021,0.04112693100690768,0.0,0.0,0.0,0.0,0.0,0.0
0.024434609527920613,0.02234021442552742,0.07539822368615504,9.357178541666666,-0.465815875,-2.606934458333333,-0.0015800622834682627,0.024677056625632496,0.08053519938417311,-0.015811447058436387,0.08157742009098021,0.04112693100690768,0.0,0.0,0.0,0.0,0.0,0.0
0.03630284844148206,0.008377580409572781,0.08447393579652555,9.46341725,-0.057205458333333334,-2.7213453750000003,-0.0015800622834682627,0.024677056625632496,0.08053519938417311,-0.015811447058436387,0.08157742009098021,0.04112693100690768,0.0,0.0,0.0,0.0,0.0,0.0
0.024434609527920613,0.025132741228718346,0.07819075048934597,9.635033625,0.23699404166666665,-2.7458620000000002,-0.0015800622834682627,0.024677056625632496,0.08053519938417311,-0.015811447058436387,0.08157742009098021,0.04112693100690768,0.0,0.0,0.0,0.0,0.0,0.0
0.009075712110370514,0.02234021442552742,0.0767944870877505,9.389867375,0.29419949999999995,-2.680484333333333,-0.0015800622834682627,0.024677056625632496,0.08053519938417311,-0.015811447058436387,0.08157742009098021,0.04112693100690768,0.010306047463249216,-0.0032948541442132362,6.200783157739077e-05,-0.08310613694038274,-0.022332518530491886,0.06948231647206704
-0.01117010721276371,0.029321531433504733,0.0767944870877505,9.553311541666666,0.34323275000000003,-2.827584083333333,-0.0015800622834682627,0.024677056625632496,0.08053519938417311,-0.015811447058436387,0.08157742009098021,0.04112693100690768,0.009863685370625711,-0.0005199454547954304,-0.0013116324937754668,0.07228181954943076,0.1329304356363792,-0.028594745564199938
-0.0307177948351002,0.030019663134302467,0.07888888219014369,9.406211791666665,0.08172208333333333,-2.778550833333333,-0.0015800622834682627,0.024677056625632496,0.08053519938417311,-0.015811447058436387,0.08157742009098021,0.04112693100690768,0.0022576440383307124,-0.0014469065247368616,-0.003634725614887006,0.02720085578344885,0.19403108834350533,-0.03668657268036076
-0.03560471674068433,0.032812189937493394,0.08587019919812101,9.349006333333334,-0.3023717083333333,-2.7131731666666665,-0.0015800622834682627,0.024677056625632496,0.08053519938417311,-0.015811447058436387,0.08157742009098021,0.04112693100690768,-0.004989571939874398,2.6566897666894643e-05,0.0005849167216089651,0.039388529839312056,0.1410352365962682,-0.0817058957238001
-0.025132741228718346,0.032114058236695664,0.08517206749732328,9.26728425,-0.5802267916666666,-2.557901208333333,-0.0015800622834682627,0.024677056625632496,0.08053519938417311,-0.015811447058436387,0.08157742009098021,0.04112693100690768,-0.01478529653707327,0.011710445718009723,-0.0004542294094914337,0.0722506472430354,0.01407175440295649,-0.04528807929231285
0.0041887902047863905,0.009075712110370514,0.08587019919812101,9.1201845,-0.6047434166666666,-2.476179125,-0.0015800622834682627,0.024677056625632496,0.08053519938417311,-0.015811447058436387,0.08157742009098021,0.04112693100690768,-0.007519140767332221,0.0017615241734660917,0.0015415797927822257,-0.20178094236144717,-0.10856075686579462,0.1017964863547856
0.019547687622336492,0.005585053606381855,0.08307767239493008,9.520622708333333,-0.3840937916666667,-2.6886565416666666,-0.0015800622834682627,0.024677056625632496,0.08053519938417311,-0.015811447058436387,0.08157742009098021,0.04112693100690768,-0.003610913120413521,-0.0033352772471219217,0.0006669268835486391,-0.034233876792578936,-0.1412863217159581,0.04449653887572084
0.02652900463031381,0.011868238913561441,0.08168140899333462,9.586000375,-0.0980665,-2.7867230416666664,-0.0015800622834682627,0.024677056625632496,0.08053519938417311,-0.015811447058436387,0.08157742009098021,0.04112693100690768,0.00647579918665883,-0.008080774338817112,0.0016067129661479715,-0.02994903327133805,-0.13710125565164294,0.024284544658636976
0.013962634015954637,0.027925268031909273,0.07819075048934597,9.643205833333333,0.17978858333333333,-2.8439284999999996,-0.0015800622834682627,0.024677056625632496,0.08053519938417311,-0.015811447058436387,0.08157742009098021,0.04112693100690768,0.006655022949765677,0.00020303397177777758,-0.00042803926784855503,0.14978073845912057,-0.0020403409982297873,-0.12657159457736716
0.0006981317007977319,0.02722713633111154,0.07888888219014369,9.340834124999999,0.18796079166666665,-2.59876225,-0.0015800622834682627,0.024677056625632496,0.08053519938417311,-0.015811447058436387,0.08157742009098021,0.04112693100690768,0.020507005279766122,-0.00990287436943547,0.002689748871842712,-0.1390653550524652,0.27941358254206394,-0.05088270379230488
-0.013264502315156905,0.03420845333908886,0.0747000919853573,9.479761666666667,0.06537766666666667,-2.8684451249999996,-0.0015800622834682627,0.024677056625632496,0.08053519938417311,-0.015811447058436387,0.08157742009098021,0.04112693100690768,0.004406574064100057,0.0038244268444863837,-0.002924284323382416,0.19897566582548912,0.01839797797244404,-0.22872137046744254
-0.021642082724729686,0.02583087292951608,0.08028514559173915,9.079323458333333,0.032688833333333334,-2.4189736666666666,-0.0015800622834682627,0.024677056625632496,0.08053519938417311,-0.015811447058436387,0.08157742009098021,0.04112693100690768,-0.0026660727163212924,0.0008980495806506163,-0.004611815889573209,-0.23442370489997638,0.14085637170146356,0.1593334978249032
-0.016057029118347832,0.024434609527920613,0.08936085770210968,9.545139333333333,-0.24516625,-2.7458620000000002,-0.0015800622834682627,0.024677056625632496,0.08053519938417311,-0.015811447058436387,0.08157742009098021,0.04112693100690768,-0.0034563639680261922,-0.005179399546127183,0.0018210875927502006,0.19895455489055758,0.09579780013848195,-0.1675648750191798
-0.009075712110370514,0.03420845333908886,0.08587019919812101,9.144701125,-0.43312704166666666,-2.4189736666666666,-0.0015800622834682627,0.024677056625632496,0.08053519938417311,-0.015811447058436387,0.08157742009098021,0.04112693100690768,-0.007275751841632085,0.009710734656263825,-0.0035594821358757504,-0.15677140109512502,-0.05127178473307571,0.16749708899089608
0.005585053606381855,0.014660765716752367,0.09285151620609833,9.455245041666666,-0.32688833333333334,-2.7622064166666664,-0.0015800622834682627,0.024677056625632496,0.08053519938417311,-0.015811447058436387,0.08157742009098021,0.04112693100690768,-0.003670453588841593,-0.00462096294838413,0.0038475219010585568,0.027270864543789148,-0.14964439575304161,-0.0983822752584337
0.012566370614359173,0.023736477827122883,0.08517206749732328,9.398039583333333,-0.024516625,-2.574245625,-0.0015800622834682627,0.024677056625632496,0.08053519938417311,-0.015811447058436387,0.08157742009098021,0.04112693100690768,0.0013446885508244877,-0.001269070488462267,0.0009663360342299937,-0.08722123847331831,0.010011931730989066,0.13067323027984287
0.009773843811168246,0.02583087292951608,0.08307767239493008,9.569655958333334,-0.04086104166666667,-2.8439284999999996,-0.0015800622834682627,0.024677056625632496,0.08053519938417311,-0.015811447058436387,0.08157742009098021,0.04112693100690768,0.004062100305250189,-0.0030442023254364393,0.0037170958025998005,0.043517044211018395,-0.038869955587749624,-0.12644528986424758
0.0020943951023931952,0.032114058236695664,0.07539822368615504,9.479761666666667,0.04086104166666667,-2.59876225,-0.0015800622834682627,0.024677056625632496,0.08053519938417311,-0.015811447058436387,0.08157742009098021,0.04112693100690768,0.001816234699306913,0.007569863643898248,-0.002031791047428668,0.0394542175781708,-0.05521002980977683,0.053033681433068566
-0.0013962634015954637,0.016755160819145562,0.07958701389094143,9.398039583333333,0.15527195833333335,-2.7131731666666665,-0.0015800622834682627,0.024677056625632496,0.08053519938417311,-0.015811447058436387,0.08157742009098021,0.04112693100690768,0.0036104420423131783,-0.00727019252737583,0.0011277011586259566,-0.0013942438499129214,0.0387732451048544,-0.041006845797115776
-0.009075712110370514,0.0307177948351002,0.07749261878854824,9.398039583333333,0.08172208333333333,-2.6396232916666666,-0.0015800622834682627,0.024677056625632496,0.08053519938417311,-0.015811447058436387,0.08157742009098021,0.04112693100690768,-0.007682168469097835,0.01993899919584095,-0.011328511267839823,0.07259210481925932,0.3704403446509303,-0.5287319310628251
-0.011868238913561441,0.0153588974175501,0.08656833089891874,9.259112041666667,-0.15527195833333335,-2.6396232916666666,-0.0015800622834682627,0.024677056625632496,0.08053519938417311,-0.015811447058436387,0.08157742009098021,0.04112693100690768,-0.0016921588199903972,-0.0018993175179864705,-0.0003170615438887597,-0.14043052749547408,0.07539019915184995,0.024175274280822067
-0.009075712110370514,0.019547687622336492,0.08726646259971647,9.536967125,-0.3023717083333333,-2.69682875,-0.0015800622834682627,0.024677056625632496,0.08053519938417311,-0.015811447058436387,0.08157742009098021,0.04112693100690768,-0.004113364213700541,0.0010022629750761549,0.004006821690545552,0.12519033088526033,-0.010393194377541416,-0.077844147120218
-0.0006981317007977319,0.016755160819145562,0.07958701389094143,9.283628666666665,-0.2778550833333333,-2.549729,-0.0015800622834682627,0.024677056625632496,0.08053519938417311,-0.015811447058436387,0.08157742009098021,0.04112693100690768,-0.0020334210016044684,0.0031101765479275663,0.0024030207349195623,-0.08718122488067429,-0.022477407752270997,0.06506618470595611
0.003490658503988659,0.01117010721276371,0.0747000919853573,9.455245041666666,-0.22882183333333334,-2.6886565416666666,-0.0015800622834682627,0.024677056625632496,0.08053519938417311,-0.015811447058436387,0.08157742009098021,0.04112693100690768,6.22781404107656e-05,-0.0035348289056300734,-0.0010103260307247372,-0.09545375536015727,-0.10009585728262863,0.04864989723459418
0.003490658503988659,0.017453292519943295,0.07609635538695278,9.643205833333333,-0.024516625,-2.7948952499999997,-0.0015800622834682627,0.024677056625632496,0.08053519938417311,-0.015811447058436387,0.08157742009098021,0.04112693100690768,0.0020696551198317726,-0.004354744478329219,0.0027058988399152497,0.03518964197015904,-0.04686523479710965,-0.00011938275628216474
-0.0006981317007977319,0.02652900463031381,0.07051130178057091,9.569655958333334,0.07354987499999999,-2.803067458333333,-0.0015800622834682627,0.024677056625632496,0.08053519938417311,-0.015811447058436387,0.08157742009098021,0.04112693100690768,0.003620204089527223,-0.004287760876646877,-0.00013369857244613479,0.09278387636192244,-0.0060328884314337135,-0.02024984701260097
-0.008377580409572781,0.03420845333908886,0.07120943348136866,9.381695166666667,0.08989429166666667,-2.7703786249999998,-0.0015800622834682627,0.024677056625632496,0.08053519938417311,-0.015811447058436387,0.08157742009098021,0.04112693100690768,7.072169691882692e-05,-3.402312854681354e-05,-0.004707307762362116,0.0354557865480952,0.07570167969993168,-0.04897967136028131
-0.008377580409572781,0.03490658503988659,0.08028514559173915,9.308145291666667,-0.057205458333333334,-2.680484333333333,-0.0015800622834682627,0.024677056625632496,0.08053519938417311,-0.015811447058436387,0.08157742009098021,0.04112693100690768,1.83968817182868e-05,0.004697082996243921,-0.002371248650978245,-0.001432818685170766,0.046844384879135434,-0.04484245800453596
-0.008377580409572781,0.025132741228718346,0.08517206749732328,9.308145291666667,-0.14709974999999997,-2.59876225,-0.0015800622834682627,0.024677056625632496,0.08053519938417311,-0.015811447058436387,0.08157742009098021,0.04112693100690768,-0.002200689822770734,0.0030837239999631535,0.00046898852967625326,0.03546468513114972,0.07958908347719496,-0.040943473266778774
-0.003490658503988659,0.01815142422074103,0.08377580409572781,9.234595416666666,-0.3023717083333333,-2.5252123749999997,-0.0015800622834682627,0.024677056625632496,0.08053519938417311,-0.015811447058436387,0.08157742009098021,0.04112693100690768,-0.017419361762669082,-0.0037827515196659383,-0.0016191070398639776,-0.37573757668586205,0.3264085358117818,-0.4852875161434359
0.0,0.019547687622336492,0.0879645943005142,9.487933875,-0.34323275000000003,-2.655967708333333,-0.0015800622834682627,0.024677056625632496,0.08053519938417311,-0.015811447058436387,0.08157742009098021,0.04112693100690768,-0.0032563027117787848,-0.0008409133795793625,0.0010484161519687684,0.09659086157596099,-0.05944539750307092,-0.06966720161040127
0.006283185307179587,0.020943951023931952,0.08587019919812101,9.291800875,-0.220649625,-2.5252123749999997,-0.0015800622834682627,0.024677056625632496,0.08053519938417311,-0.015811447058436387,0.08157742009098021,0.04112693100690768,0.0005010940521035393,0.003947234402502498,0.0034368941374950885,-0.10770711025829154,-0.05530147232105592,0.1223875548089235
0.005585053606381855,0.013264502315156905,0.07888888219014369,9.504278291666665,-0.10623870833333333,-2.778550833333333,-0.0015800622834682627,0.024677056625632496,0.08053519938417311,-0.015811447058436387,0.08157742009098021,0.04112693100690768,0.00179211668018226,-0.009639110586059133,-0.0012756954401842288,-0.02995429461443779,-0.05540409758173944,-0.06971478430408132
0.0020943951023931952,0.032114058236695664,0.08098327729253688,9.561483749999999,0.008172208333333333,-2.6477955,-0.0015800622834682627,0.024677056625632496,0.08053519938417311,-0.015811447058436387,0.08157742009098021,0.04112693100690768,0.003917559038707648,0.005425334834005949,0.0002159074670935362,0.0884201558954522,-0.04703666220604351,0.1430270791156258
-0.005585053606381855,0.021642082724729686,0.08098327729253688,9.381695166666667,0.10623870833333333,-2.941995,-0.0015800622834682627,0.024677056625632496,0.08053519938417311,-0.015811447058436387,0.08157742009098021,0.04112693100690768,0.004096848032692959,-0.008283991441774542,-0.0007166509932224084,0.014995639587322442,0.06747001446164073,-0.20842656771577397
-0.013264502315156905,0.03769911184307752,0.08237954069413235,9.349006333333334,-0.024516625,-2.5333845833333335,-0.0015800622834682627,0.024677056625632496,0.08053519938417311,-0.015811447058436387,0.08157742009098021,0.04112693100690768,-0.0016508508025044545,0.007104100402338492,-0.0018416339528704803,0.019236129793390448,0.08759218363982484,0.07364556924828422
-0.010471975511965976,0.023736477827122883,0.08587019919812101,9.308145291666667,-0.196133,-2.6886565416666666,-0.0015800622834682627,0.024677056625632496,0.08053519938417311,-0.015811447058436387,0.08157742009098021,0.04112693100690768,-0.002466162907846461,-0.003390133639656293,0.002277827169720721,-0.05039149241154384,0.03460485350518683,-0.06121260823921121
-0.005585053606381855,0.030019663134302467,0.08098327729253688,9.406211791666665,-0.26151066666666667,-2.574245625,-0.0015800622834682627,0.024677056625632496,0.08053519938417311,-0.015811447058436387,0.08157742009098021,0.04112693100690768,-0.0029257843177194374,0.009050843127841752,-0.006430712516241207,0.0638784522074283,-0.03073067155912119,0.00377433458971645
0.0,0.011868238913561441,0.0942477796076938,9.275456458333332,-0.196133,-2.5905900416666663,-0.0015800622834682627,0.024677056625632496,0.08053519938417311,-0.015811447058436387,0.08157742009098021,0.04112693100690768,-0.0016516047208030356,-0.00632310526638664,0.0044453803276177425,-0.1975920726384454,0.05077527042997698,0.016268559885435883
0.003490658503988659,0.024434609527920613,0.08517206749732328,9.667722458333333,-0.29419949999999995,-2.631451083333333,-0.0015800622834682627,0.024677056625632496,0.08053519938417311,-0.015811447058436387,0.08157742009098021,0.04112693100690768,-0.012812249317439649,-0.0005166221847159138,0.009661175884538721,0.017451649873479393,0.06452894431853447,-0.6578436997125271
0.011868238913561441,0.014660765716752367,0.08377580409572781,9.332661916666666,-0.22882183333333334,-2.6396232916666666,-0.0015800622834682627,0.024677056625632496,0.08053519938417311,-0.015811447058436387,0.08157742009098021,0.04112693100690768,-0.001275622335590363,-0.003439404923027128,0.0018242036140732505,-0.11593313625704259,-0.14927273217212822,-0.016675459121593954
0.013962634015954637,0.021642082724729686,0.07958701389094143,9.561483749999999,0.07354987499999999,-2.6151066666666667,-0.0015800622834682627,0.024677056625632496,0.08053519938417311,-0.015811447058436387,0.08157742009098021,0.04112693100690768,0.006310555639118009,-0.004014916676714712,0.00063787262677328,0.035468777098659136,-0.06352647403320343,0.06124327604226484
0.0013962634015954637,0.029321531433504733,0.07819075048934597,9.487933875,0.20430520833333332,-2.7458620000000002,-0.0015800622834682627,0.024677056625632496,0.08053519938417311,-0.015811447058436387,0.08157742009098021,0.04112693100690768,0.0076986928010721704,-0.0038503220622438284,0.0010939024442606657,-0.05853170058858928,0.01845579890021958,0.05330197636493589
-0.013962634015954637,0.03700098014227979,0.07609635538695278,9.602344791666665,0.17161637500000002,-2.8602729166666667,-0.0015800622834682627,0.024677056625632496,0.08053519938417311,-0.015811447058436387,0.08157742009098021,0.04112693100690768,0.002014149124687459,-0.0004996879120476312,-0.00299480968072158,0.14977139814914806,0.13289136645475938,-0.17133756375225356
-0.017453292519943295,0.03769911184307752,0.08237954069413235,9.299973083333333,-0.08989429166666667,-2.5252123749999997,-0.0015800622834682627,0.024677056625632496,0.08053519938417311,-0.015811447058436387,0.08157742009098021,0.04112693100690768,-0.003509097626002978,0.005359489139200244,-0.0015111348810799082,-0.02174611802713345,0.026348174462418005,0.08584600327820364
-0.010471975511965976,0.02652900463031381,0.08447393579652555,9.340834124999999,-0.13892754166666665,-2.705000958333333,-0.0015800622834682627,0.024677056625632496,0.08053519938417311,-0.015811447058436387,0.08157742009098021,0.04112693100690768,-0.00308440222431547,0.002413780412504239,-0.0017344606428753486,0.16214337191972605,0.030537371946986226,-0.10212914444160741
-0.0041887902047863905,0.021642082724729686,0.0879645943005142,9.013945791666666,-0.196133,-2.5088679583333335,-0.0015800622834682627,0.024677056625632496,0.08053519938417311,-0.015811447058436387,0.08157742009098021,0.04112693100690768,-0.0021589185925991704,0.006327774312727869,-0.00017660682523504295,-0.24674187586089036,0.07539081354343105,0.15893633271264962
0.0,0.009075712110370514,0.08866272600131193,9.504278291666665,-0.34323275000000003,-2.8357562916666668,-0.0015800622834682627,0.024677056625632496,0.08053519938417311,-0.015811447058436387,0.08157742009098021,0.04112693100690768,-0.0038403212366532272,-0.0046783963166179615,0.0015381040303080482,-0.038143706154478436,0.018083652105647274,-0.12699822863552096
0.00767944870877505,0.01815142422074103,0.08517206749732328,9.577828166666666,-0.3759215833333333,-2.5905900416666663,-0.0015800622834682627,0.024677056625632496,0.08053519938417311,-0.015811447058436387,0.08157742009098021,0.04112693100690768,-0.006020904480451872,0.000615105797144933,0.0032727511174905437,0.0720225272190605,-0.1330773915056641,0.08563396886895605
0.019547687622336492,0.016755160819145562,0.07888888219014369,9.430728416666666,-0.10623870833333333,-2.7703786249999998,-0.0015800622834682627,0.024677056625632496,0.08053519938417311,-0.015811447058436387,0.08157742009098021,0.04112693100690768,0.012599244479765737,-0.021009280474594872,0.018081643109782136,-0.19051756022654498,-0.15953270226339053,-0.825194092003214
0.010471975511965976,0.027925268031909273,0.06981317007977318,9.389867375,0.13075533333333333,-2.6396232916666666,-0.0015800622834682627,0.024677056625632496,0.08053519938417311,-0.015811447058436387,0.08157742009098021,0.04112693100690768,0.00662959014914032,-0.0011879969401795453,-0.0020771675022349238,-0.1116736741856949,-0.038668595299157976,0.04087133231317203
-0.0027925268031909274,0.030019663134302467,0.0747000919853573,9.610517,0.21247741666666667,-2.729517583333333,-0.0015800622834682627,0.024677056625632496,0.08053519938417311,-0.015811447058436387,0.08157742009098021,0.04112693100690768,0.0052180753627393975,-0.0025611828054238842,0.0039151633548384565,0.07627855425162551,0.042933867225145375,0.016534279281758223
-0.013264502315156905,0.03560471674068433,0.06632251157578452,9.455245041666666,0.13075533333333333,-2.7703786249999998,-0.0015800622834682627,0.024677056625632496,0.08053519938417311,-0.015811447058436387,0.08157742009098021,0.04112693100690768,-3.849240369968847e-05,0.002640781651071005,-0.0060147772931224315,0.1499072682776063,0.07583082593068699,-0.06939056922354052
-0.013264502315156905,0.030019663134302467,0.07819075048934597,9.152873333333332,-0.016344416666666667,-2.6396232916666666,-0.0015800622834682627,0.024677056625632496,0.08053519938417311,-0.015811447058436387,0.08157742009098021,0.04112693100690768,0.0013709727081272275,-0.0015422963463246479,-0.000684054553292433,-0.08310564823855454,0.10420306320015206,0.004097270033430078
-0.0153588974175501,0.032812189937493394,0.07958701389094143,9.316317499999998,-0.220649625,-2.655967708333333,-0.0015800622834682627,0.024677056625632496,0.08053519938417311,-0.015811447058436387,0.08157742009098021,0.04112693100690768,-0.002228229811198841,0.007034801603302261,-0.006191705838187687,0.05575672594247424,0.05093801197569914,-0.057342874696580406
-0.01117010721276371,0.01884955592153876,0.09215338450530061,9.201906583333333,-0.318716125,-2.549729,-0.0015800622834682627,0.024677056625632496,0.08053519938417311,-0.015811447058436387,0.08157742009098021,0.04112693100690768,-0.004487675614753102,0.002596040870161464,0.0025603750322643554,-0.14459227821599885,0.0753613969454816,0.09789496543605997
-0.0020943951023931952,0.013264502315156905,0.08656833089891874,9.487933875,-0.465815875,-2.754034208333333,-0.0015800622834682627,0.024677056625632496,0.08053519938417311,-0.015811447058436387,0.08157742009098021,0.04112693100690768,-0.006111562350729437,-0.006593082558263577,0.004589479051103906,0.0068864363113748835,-0.09214999606915761,-0.07789760766543755
0.010471975511965976,0.02652900463031381,0.07749261878854824,9.471589458333332,-0.2778550833333333,-2.606934458333333,-0.0015800622834682627,0.024677056625632496,0.08053519938417311,-0.015811447058436387,0.08157742009098021,0.04112693100690768,-0.005414396428760785,0.0074335427430183305,-0.0014716951693805962,-0.06269061897510052,-0.07969184373116239,0.1306937916662033
0.020943951023931952,0.01117010721276371,0.08028514559173915,9.594172583333334,-0.11441091666666667,-2.8766173333333334,-0.0015800622834682627,0.024677056625632496,0.08053519938417311,-0.015811447058436387,0.08157742009098021,0.04112693100690768,0.004556707327439396,-0.010929744723925617,0.004090005589391126,0.04339712485227498,-0.13301377372421525,-0.1310048984064255
0.011868238913561441,0.033510321638291124,0.07260569688296412,9.504278291666665,0.15527195833333335,-2.623278875,-0.0015800622834682627,0.024677056625632496,0.08053519938417311,-0.015811447058436387,0.08157742009098021,0.04112693100690768,0.018695758735433343,-0.006268845490707704,-0.012850556011064709,-0.21919592926142178,0.1679008548227255,-0.7638081505811648
0.0006981317007977319,0.031415926535897934,0.07958701389094143,9.422556208333333,0.16344416666666667,-2.754034208333333,-0.0015800622834682627,0.024677056625632496,0.08053519938417311,-0.015811447058436387,0.08157742009098021,0.04112693100690768,0.007723996039018686,-0.00012720099199940176,-0.0005379977292903263,-0.05435467727183637,0.04281105720454302,0.008295351011349466
-0.014660765716752367,0.031415926535897934,0.08098327729253688,9.528794916666666,0.08172208333333333,-2.778550833333333,-0.0015800622834682627,0.024677056625632496,0.08053519938417311,-0.015811447058436387,0.08157742009098021,0.04112693100690768,0.0022288460388453966,-1.2407965836641931e-05,-0.0022063695001288087,0.12119360198781243,0.12052429200168881,-0.12257590220359199
-0.019547687622336492,0.0307177948351002,0.08517206749732328,9.283628666666665,-0.15527195833333335,-2.5415567916666664,-0.0015800622834682627,0.024677056625632496,0.08053519938417311,-0.015811447058436387,0.08157742009098021,0.04112693100690768,-0.00020655002321334597,0.0004291912317585874,-0.0032563331674740313,-0.01361009061561282,0.0712956000897666,0.028756039482891082
-0.01884955592153876,0.030019663134302467,0.09215338450530061,9.308145291666667,-0.29419949999999995,-2.606934458333333,-0.0015800622834682627,0.024677056625632496,0.08053519938417311,-0.015811447058436387,0.08157742009098021,0.04112693100690768,-0.0066180950893281855,0.008983203865503034,-0.002562437943405033,0.014833217097057868,0.02221693080295396,-0.06966685234299996
-0.005585053606381855,0.012566370614359173,0.09704030641088471,9.275456458333332,-0.3350605416666666,-2.476179125,-0.0015800622834682627,0.024677056625632496,0.08053519938417311,-0.015811447058436387,0.08157742009098021,0.04112693100690768,-0.0031234909467049363,0.0010266298384578457,0.0035348038020217216,-0.1403937478342413,0.03025314128865325,0.1833846393752597
0.0006981317007977319,0.009773843811168246,0.08936085770210968,9.553311541666666,-0.392266,-2.852100708333333,-0.0015800622834682627,0.024677056625632496,0.08053519938417311,-0.015811447058436387,0.08157742009098021,0.04112693100690768,-0.007390749239779786,-0.005881003765435984,0.004613728546500167,0.08035912038670413,-0.04739277193144866,-0.08599078978536386
0.0153588974175501,0.021642082724729686,0.08028514559173915,9.389867375,-0.29419949999999995,-2.6886565416666666,-0.0015800622834682627,0.024677056625632496,0.08053519938417311,-0.015811447058436387,0.08157742009098021,0.04112693100690768,-0.0023708850536566296,0.002828292594501108,0.00041660124184002777,-0.058753913550841926,-0.13299367844110557,0.08552492946822843
0.02024581932313422,0.016057029118347832,0.07958701389094143,9.504278291666665,-0.024516625,-2.8684451249999996,-0.0015800622834682627,0.024677056625632496,0.08053519938417311,-0.015811447058436387,0.08157742009098021,0.04112693100690768,0.003226860493518325,-0.009498290334760092,0.0030562358045422575,0.0068490153999125536,-0.15734187125543228,-0.09810224700656343
0.013962634015954637,0.03490658503988659,0.07330382858376185,9.487933875,0.29419949999999995,-2.680484333333333,-0.0015800622834682627,0.024677056625632496,0.08053519938417311,-0.015811447058436387,0.08157742009098021,0.04112693100690768,0.007744160152458176,0.0019076411263799801,-0.003238883337166123,0.01920401050090658,0.014137129550600345,0.04098665179635661
-0.0013962634015954637,0.0307177948351002,0.07958701389094143,9.447072833333333,0.269682875,-2.7703786249999998,-0.0015800622834682627,0.024677056625632496,0.08053519938417311,-0.015811447058436387,0.08157742009098021,0.04112693100690768,0.01276844442151937,-0.009456490116564109,-0.000280884945167554,-0.2991262752355271,0.4128331711627501,-1.0415162823681507
-0.009075712110370514,0.039095375244672985,0.08028514559173915,9.487933875,0.04903325,-2.680484333333333,-0.0015800622834682627,0.024677056625632496,0.08053519938417311,-0.015811447058436387,0.08157742009098021,0.04112693100690768,0.005571062947116785,0.007117962200785471,-0.0025746428118801293,0.1171017131451382,0.08362118737155175,-0.02849049115283127
-0.02024581932313422,0.024434609527920613,0.08517206749732328,9.250939833333334,-0.11441091666666667,-2.631451083333333,-0.0015800622834682627,0.024677056625632496,0.08053519938417311,-0.015811447058436387,0.08157742009098021,0.04112693100690768,-0.002298511359982076,0.0020009899119071656,-0.0011198658752561365,-0.0013938704832585367,0.030494160790946922,0.028444311815759665
-0.016057029118347832,0.02024581932313422,0.08726646259971647,9.250939833333334,-0.17161637500000002,-2.69682875,-0.0015800622834682627,0.024677056625632496,0.08053519938417311,-0.015811447058436387,0.08157742009098021,0.04112693100690768,-0.002493574471529304,-0.001104459776555912,9.858272049016148e-05,-0.054495851304526194,0.11638767263430005,-0.06536672852799234
-0.010471975511965976,0.02234021442552742,0.08726646259971647,9.357178541666666,-0.4004382083333333,-2.574245625,-0.0015800622834682627,0.024677056625632496,0.08053519938417311,-0.015811447058436387,0.08157742009098021,0.04112693100690768,-0.006614672738815365,0.0059456694359831365,6.468565322415701e-05,-0.05045974309704348,-0.031038938041194824,0.1018207249707438
0.0027925268031909274,0.010471975511965976,0.08656833089891874,9.455245041666666,-0.3350605416666666,-2.7867230416666664,-0.0015800622834682627,0.024677056625632496,0.08053519938417311,-0.015811447058436387,0.08157742009098021,0.04112693100690768,-0.005231757511901299,-0.007070448124612212,0.00446482450616085,-0.06690298252553284,-0.055229436026855316,-0.09012881603741793
0.013264502315156905,0.024434609527920613,0.07819075048934597,9.586000375,-0.220649625,-2.6151066666666667,-0.0015800622834682627,0.024677056625632496,0.08053519938417311,-0.015811447058436387,0.08157742009098021,0.04112693100690768,-0.001834150087360668,0.0028527370111418983,0.0009397864220649734,0.08446750961226848,-0.05524743914359526,0.08158753207932705
0.016755160819145562,0.01884955592153876,0.07609635538695278,9.414383999999998,-0.10623870833333333,-2.7867230416666664,-0.0015800622834682627,0.024677056625632496,0.08053519938417311,-0.015811447058436387,0.08157742009098021,0.04112693100690768,0.005645636891529324,-0.005752662108348971,0.003004749976037262,-0.026001711803369014,-0.12461421338251767,-0.02461654515513174
0.005585053606381855,0.030019663134302467,0.06981317007977318,9.46341725,0.14709974999999997,-2.7458620000000002,-0.0015800622834682627,0.024677056625632496,0.08053519938417311,-0.015811447058436387,0.08157742009098021,0.04112693100690768,0.005505605557020689,0.002602072614267205,-0.001806486648453527,0.06400853494549394,-0.055090807828936286,0.01628661071951643
-0.004886921905584123,0.024434609527920613,0.07330382858376185,9.332661916666666,0.26151066666666667,-2.7867230416666664,-0.0015800622834682627,0.024677056625632496,0.08053519938417311,-0.015811447058436387,0.08157742009098021,0.04112693100690768,0.004423174574408245,-0.00804498118185506,-0.002522269643385066,-0.07068522829784181,0.16546885916263027,-0.05301793507509347
-0.013962634015954637,0.04049163864626844,0.07819075048934597,9.471589458333332,-0.06537766666666667,-2.6886565416666666,-0.0015800622834682627,0.024677056625632496,0.08053519938417311,-0.015811447058436387,0.08157742009098021,0.04112693100690768,0.002294982979806157,0.014485069791762891,-0.00371474708063939,0.10285128403411821,0.5257554700814983,-1.1719240942591258
-0.02024581932313422,0.020943951023931952,0.08377580409572781,9.128356708333332,-0.21247741666666667,-2.557901208333333,-0.0015800622834682627,0.024677056625632496,0.08053519938417311,-0.015811447058436387,0.08157742009098021,0.04112693100690768,-0.0033637021020753383,-0.0030531604812264438,0.00026609022616931957,-0.14832560487644386,0.046963297798560774,0.08159780837242549
-0.013264502315156905,0.02652900463031381,0.08377580409572781,9.422556208333333,-0.3023717083333333,-2.729517583333333,-0.0015800622834682627,0.024677056625632496,0.08053519938417311,-0.015811447058436387,0.08157742009098021,0.04112693100690768,-0.006593961147950877,0.0038065847906858167,-0.0035369787977745345,0.09244705316329482,0.04668771171530727,-0.1390438187180702
0.0,0.019547687622336492,0.09075712110370514,9.234595416666666,-0.392266,-2.459834708333333,-0.0015800622834682627,0.024677056625632496,0.08053519938417311,-0.015811447058436387,0.08157742009098021,0.04112693100690768,-0.006062423871116491,0.0022850953556191505,0.0020879677409754876,-0.20172426072517918,-0.010495197722043246,0.2286364583950504
0.011868238913561441,0.013962634015954637,0.08656833089891874,9.635033625,-0.367749375,-2.9256505833333333,-0.0015800622834682627,0.024677056625632496,0.08053519938417311,-0.015811447058436387,0.08157742009098021,0.04112693100690768,-0.0017682142225919895,-0.003790883903955854,0.005239110399516201,0.03540226673170682,-0.08805012527895056,-0.16785837765429984
0.0153588974175501,0.021642082724729686,0.07539822368615504,9.561483749999999,-0.18796079166666665,-2.59876225,-0.0015800622834682627,0.024677056625632496,0.08053519938417311,-0.015811447058436387,0.08157742009098021,0.04112693100690768,-0.0003824349072595811,0.0012449327970979526,-0.0003861105691619787,0.06806867923677547,-0.07577197919271825,0.14295652051748098
0.016057029118347832,0.01884955592153876,0.0767944870877505,9.422556208333333,-0.032688833333333334,-2.8929617499999996,-0.0015800622834682627,0.024677056625632496,0.08053519938417311,-0.015811447058436387,0.08157742009098021,0.04112693100690768,0.0039029108265825467,-0.006049839183147459,0.002428231365761432,0.03138731501950788,-0.08771694630383951,-0.14720365741100663
0.008377580409572781,0.031415926535897934,0.07120943348136866,9.357178541666666,0.14709974999999997,-2.606934458333333,-0.0015800622834682627,0.024677056625632496,0.08053519938417311,-0.015811447058436387,0.08157742009098021,0.04112693100690768,0.006172860516221073,0.00377710337586179,-0.005538802154906283,-0.07507907788092684,-0.002186935193434615,0.10631638352766429
-0.003490658503988659,0.023736477827122883,0.08237954069413235,9.504278291666665,0.15527195833333335,-2.827584083333333,-0.0015800622834682627,0.024677056625632496,0.08053519938417311,-0.015811447058436387,0.08157742009098021,0.04112693100690768,0.005478385324666962,-0.006235876429480147,-0.00036336240018451817,0.02735037511124473,0.05924394401208818,-0.16767987447770236
-0.014660765716752367,0.03560471674068433,0.08377580409572781,9.447072833333333,0.04086104166666667,-2.5006957499999998,-0.0015800622834682627,0.024677056625632496,0.08053519938417311,-0.015811447058436387,0.08157742009098021,0.04112693100690768,0.00010061291648335387,0.00794974782998621,-0.0047147962538072845,0.16198031859972523,0.13251275608442864,0.05732774871343674
-0.0153588974175501,0.019547687622336492,0.09285151620609833,9.1201845,-0.220649625,-2.623278875,-0.0015800622834682627,0.024677056625632496,0.08053519938417311,-0.015811447058436387,0.08157742009098021,0.04112693100690768,-0.012762368886718068,-0.001531314679260702,0.0028792409066056186,-0.4049952530921656,0.4430886031041453,-1.0097257515983775
-0.012566370614359173,0.023038346126325153,0.0879645943005142,9.26728425,-0.3759215833333333,-2.6477955,-0.0015800622834682627,0.024677056625632496,0.08053519938417311,-0.015811447058436387,0.08157742009098021,0.04112693100690768,-0.005487308924121621,0.00904828332369161,-0.0029241346944533443,-0.0013852855781259859,-0.02281501332483157,-0.03306149618062736
-0.0013962634015954637,0.004886921905584123,0.09354964790689606,9.26728425,-0.32688833333333334,-2.5905900416666663,-0.0015800622834682627,0.024677056625632496,0.08053519938417311,-0.015811447058436387,0.08157742009098021,0.04112693100690768,-0.008471796279578853,-0.007401101863371127,0.0013768251488543062,-0.20173282516814156,-0.06371328151008922,0.1140264385239162
0.0153588974175501,0.019547687622336492,0.09075712110370514,9.667722458333333,-0.196133,-2.827584083333333,-0.0015800622834682627,0.024677056625632496,0.08053519938417311,-0.015811447058436387,0.08157742009098021,0.04112693100690768,0.0009577173077824255,-0.00267386468780753,0.006012234926032833,0.1292429109859492,-0.05543885748356518,-0.13483826222688086
0.013962634015954637,0.024434609527920613,0.07888888219014369,9.406211791666665,-0.08172208333333333,-2.5660734166666663,-0.0015800622834682627,0.024677056625632496,0.08053519938417311,-0.015811447058436387,0.08157742009098021,0.04112693100690768,0.0031112472617562652,-0.002031688218568474,0.0015553956254501411,-0.050436915322234835,-0.0348475199518145,0.11833218156191498
0.00767944870877505,0.028623399732707,0.07539822368615504,9.504278291666665,-0.008172208333333333,-2.811239666666667,-0.0015800622834682627,0.024677056625632496,0.08053519938417311,-0.015811447058436387,0.08157742009098021,0.04112693100690768,0.00488928353525211,0.0011604294087045218,0.002723157848473606,0.09268442943201333,-0.09190182995322925,-0.14717544086907441
-0.0020943951023931952,0.02583087292951608,0.06981317007977318,9.316317499999998,0.17978858333333333,-2.5252123749999997,-0.0015800622834682627,0.024677056625632496,0.08053519938417311,-0.015811447058436387,0.08157742009098021,0.04112693100690768,0.003212871301622415,-0.0012164504542215382,-0.00627211845170619,-0.13619237637315143,0.059227343676840113,0.1553708020749453
-0.008377580409572781,0.028623399732707,0.08237954069413235,9.586000375,0.06537766666666667,-2.8439284999999996,-0.0015800622834682627,0.024677056625632496,0.08053519938417311,-0.015811447058436387,0.08157742009098021,0.04112693100690768,0.004346914990617763,-0.005329859226294464,0.00015214856537769457,0.1335032583641134,0.07563265475422942,-0.12646809869556006
-0.016755160819145562,0.03839724354387525,0.08237954069413235,9.316317499999998,-0.08172208333333333,-2.59876225,-0.0015800622834682627,0.024677056625632496,0.08053519938417311,-0.015811447058436387,0.08157742009098021,0.04112693100690768,-0.0034394694914878926,0.007386762807898942,-0.004054548292663967,0.06401299353751007,0.0631053372252359,-0.020512074387505737
-0.010471975511965976,0.024434609527920613,0.09075712110370514,9.185562166666665,-0.20430520833333332,-2.5660734166666663,-0.0015800622834682627,0.024677056625632496,0.08053519938417311,-0.015811447058436387,0.08157742009098021,0.04112693100690768,-3.584035166572496e-05,-0.0005899800571752064,0.0038869624442356547,-0.11171755002882235,0.05096850733052884,0.03676821155020659
-0.010471975511965976,0.025132741228718346,0.08237954069413235,9.406211791666665,-0.3023717083333333,-2.6477955,-0.0015800622834682627,0.024677056625632496,0.08053519938417311,-0.015811447058436387,0.08157742009098021,0.04112693100690768,-0.01905199110577369,-0.0021851063811650154,0.011342762513757959,-0.46877399167849226,0.17924897355052516,-1.091766213094236
0.0006981317007977319,0.01815142422074103,0.08587019919812101,9.430728416666666,-0.269682875,-2.6396232916666666,-0.0015800622834682627,0.024677056625632496,0.08053519938417311,-0.015811447058436387,0.08157742009098021,0.04112693100690768,-0.0038585272038855994,0.0035599053945093934,-0.00026259238715941734,-0.09145624282671286,-0.02267194047641207,0.1142236351923155
0.009075712110370514,0.01117010721276371,0.08656833089891874,9.610517,-0.220649625,-2.8766173333333334,-0.0015800622834682627,0.024677056625632496,0.08053519938417311,-0.015811447058436387,0.08157742009098021,0.04112693100690768,-0.001526955267430207,-0.007635799672327704,0.00858632488527101,0.06396953106758767,-0.11670642633114484,-0.06973134483436963
0.011868238913561441,0.02652900463031381,0.06981317007977318,9.479761666666667,0.016344416666666667,-2.7458620000000002,-0.0015800622834682627,0.024677056625632496,0.08053519938417311,-0.015811447058436387,0.08157742009098021,0.04112693100690768,0.0049052638728575675,0.0014181833974041419,-0.002109193609600672,0.1130975682594013,-0.01833077380709783,-0.02044914782297507
0.0020943951023931952,0.023038346126325153,0.07400196028455958,9.250939833333334,0.057205458333333334,-2.7131731666666665,-0.0015800622834682627,0.024677056625632496,0.08053519938417311,-0.015811447058436387,0.08157742009098021,0.04112693100690768,0.0009068357741486324,-0.002460279858611564,0.00045153611906278615,-0.13228510610953187,-0.051037287666617005,0.04485151406389636
0.0,0.027925268031909273,0.07260569688296412,9.5124505,0.16344416666666667,-2.811239666666667,-0.0015800622834682627,0.024677056625632496,0.08053519938417311,-0.015811447058436387,0.08157742009098021,0.04112693100690768,0.004376554078375319,-0.001555439360317801,-0.006103381983661263,0.04363525939416209,0.07158453786032568,-0.0204138873224923
-0.008377580409572781,0.0307177948351002,0.08517206749732328,9.422556208333333,0.024516625,-2.778550833333333,-0.0015800622834682627,0.024677056625632496,0.08053519938417311,-0.015811447058436387,0.08157742009098021,0.04112693100690768,0.004261756945451275,0.0016144350990339948,0.002175351015732884,0.023229713346396896,0.09594498228273898,-0.020429775360457748
-0.016755160819145562,0.02722713633111154,0.08028514559173915,9.373522958333332,-0.16344416666666667,-2.7458620000000002,-0.0015800622834682627,0.024677056625632496,0.08053519938417311,-0.015811447058436387,0.08157742009098021,0.04112693100690768,-0.003217991509468615,-0.000506606362561984,-0.0026052351728864703,0.03940233856140744,0.09993028911875304,-0.07359736731313667
-0.010471975511965976,0.028623399732707,0.08517206749732328,9.291800875,-0.35957716666666667,-2.606934458333333,-0.0015800622834682627,0.024677056625632496,0.08053519938417311,-0.015811447058436387,0.08157742009098021,0.04112693100690768,-0.004291225217502659,0.004807195124584477,-0.0014568478591628583,-0.0422251131035142,0.010135001479359284,0.016191637553511697
-0.0020943951023931952,0.01815142422074103,0.08866272600131193,9.373522958333332,-0.3759215833333333,-2.6477955,-0.0015800622834682627,0.024677056625632496,0.08053519938417311,-0.015811447058436387,0.08157742009098021,0.04112693100690768,-0.00696028770451382,-0.003650621822278542,0.0005963784846732628,0.015009789043468951,-0.055540643981571186,-0.028715566214374665
0.012566370614359173,0.02583087292951608,0.08726646259971647,9.340834124999999,-0.26151066666666667,-2.59876225,-0.0015800622834682627,0.024677056625632496,0.08053519938417311,-0.015811447058436387,0.08157742009098021,0.04112693100690768,-0.005270369865551565,0.0018187073900645992,0.013065739207153659,-0.253848160839619,0.10415214575360487,-0.9876164867367674
0.012566370614359173,0.009075712110370514,0.08098327729253688,9.340834124999999,-0.13892754166666665,-2.7458620000000002,-0.0015800622834682627,0.024677056625632496,0.08053519938417311,-0.015811447058436387,0.08157742009098021,0.04112693100690768,0.00340025987874614,-0.007728077011452455,0.0030037871112926925,-0.12810493475272455,-0.05921618811039313,-0.03290606947064355
0.005585053606381855,0.025132741228718346,0.0747000919853573,9.594172583333334,-0.016344416666666667,-2.6886565416666666,-0.0015800622834682627,0.024677056625632496,0.08053519938417311,-0.015811447058436387,0.08157742009098021,0.04112693100690768,0.0016857716925514233,0.0015862599263947836,7.015551788479986e-06,0.153758943124689,-0.026594914475310233,0.02847319515362172
0.0020943951023931952,0.021642082724729686,0.0747000919853573,9.283628666666665,0.04086104166666667,-2.754034208333333,-0.0015800622834682627,0.024677056625632496,0.08053519938417311,-0.015811447058436387,0.08157742009098021,0.04112693100690768,0.0038729435510409652,-0.005907940099691314,-2.4276268171295313e-05,-0.09539997143730679,-0.03473667770559433,0.008130982776087725
-0.004886921905584123,0.032812189937493394,0.0747000919853573,9.471589458333332,0.11441091666666667,-2.778550833333333,-0.0015800622834682627,0.024677056625632496,0.08053519938417311,-0.015811447058436387,0.08157742009098021,0.04112693100690768,0.005497589639405245,0.0035762413940158126,-0.003981331737393124,0.10913207855058345,0.038848582234293876,-0.07348625188540014
-0.016057029118347832,0.02583087292951608,0.08237954069413235,9.250939833333334,0.04086104166666667,-2.6396232916666666,-0.0015800622834682627,0.024677056625632496,0.08053519938417311,-0.015811447058436387,0.08157742009098021,0.04112693100690768,0.0002859668943685144,-0.0011266718734620213,-0.0029288387671243146,-0.07490192018555501,0.13271523827770365,0.016325694995242668
-0.016755160819145562,0.027925268031909273,0.0879645943005142,9.398039583333333,-0.220649625,-2.680484333333333,-0.0015800622834682627,0.024677056625632496,0.08053519938417311,-0.015811447058436387,0.08157742009098021,0.04112693100690768,-0.0064721883187526166,0.0005269536850639343,-0.001926628910021753,0.07207988915415176,0.11613636859907822,-0.14308110924867679
-0.0041887902047863905,0.02652900463031381,0.09215338450530061,9.250939833333334,-0.4494714583333333,-2.40262925,-0.0015800622834682627,0.024677056625632496,0.08053519938417311,-0.015811447058436387,0.08157742009098021,0.04112693100690768,-0.006548001251206111,0.0022979436731006327,0.0015638777426346003,-0.16479993603868986,-0.051320197711248204,0.18381374263352268
0.009075712110370514,0.021642082724729686,0.08936085770210968,9.577828166666666,-0.34323275000000003,-2.778550833333333,-0.0015800622834682627,0.024677056625632496,0.08053519938417311,-0.015811447058436387,0.08157742009098021,0.04112693100690768,-0.002427860350731519,0.0006943273464035526,0.0007349897374850144,0.12524865863946513,-0.1495705698255946,-0.12263620121644155
0.013962634015954637,0.02024581932313422,0.08726646259971647,9.324489708333333,-0.04086104166666667,-2.5415567916666664,-0.0015800622834682627,0.024677056625632496,0.08053519938417311,-0.015811447058436387,0.08157742009098021,0.04112693100690768,-0.00028477373523984225,0.0026288236849674055,0.003443946875892435,-0.09954321325085097,0.00588428240272517,0.1384910833483596
0.014660765716752367,0.014660765716752367,0.08098327729253688,9.520622708333333,-0.04903325,-2.827584083333333,-0.0015800622834682627,0.024677056625632496,0.08053519938417311,-0.015811447058436387,0.08157742009098021,0.04112693100690768,0.01803833724052513,-0.02827927890974068,0.020706041685392435,-0.4741066174370393,0.18286959658815802,-1.270311638795546
0.003490658503988659,0.031415926535897934,0.06771877497737998,9.545139333333333,-0.057205458333333334,-2.6151066666666667,-0.0015800622834682627,0.024677056625632496,0.08053519938417311,-0.015811447058436387,0.08157742009098021,0.04112693100690768,0.0038065683600648145,0.008590238652360492,-0.0032949726424445934,0.0476530084059563,-0.10424590100560308,0.12249912944269878
-0.0041887902047863905,0.014660765716752367,0.0747000919853573,9.447072833333333,0.15527195833333335,-2.8684451249999996,-0.0015800622834682627,0.024677056625632496,0.08053519938417311,-0.015811447058436387,0.08157742009098021,0.04112693100690768,0.004392113422439252,-0.009457186338994892,0.0014717793013297982,0.0026408979120603592,0.0022779661403558526,-0.13495846555492247
-0.013264502315156905,0.033510321638291124,0.07120943348136866,9.438900625,0.15527195833333335,-2.606934458333333,-0.0015800622834682627,0.024677056625632496,0.08053519938417311,-0.015811447058436387,0.08157742009098021,0.04112693100690768,0.002376727896923633,0.0044045279186135985,-0.0044808857099029025,0.019176342480142,0.12065497991312782,0.07753089943541835
-0.017453292519943295,0.024434609527920613,0.08028514559173915,9.398039583333333,-0.08172208333333333,-2.7703786249999998,-0.0015800622834682627,0.024677056625632496,0.08053519938417311,-0.015811447058436387,0.08157742009098021,0.04112693100690768,-0.0005805233423021355,-0.005143679477828575,0.0010189702430020574,-0.03415592384841344,0.18595146690703906,-0.08154510219681749
-0.016755160819145562,0.03420845333908886,0.07819075048934597,9.46341725,-0.4494714583333333,-2.6151066666666667,-0.0015800622834682627,0.024677056625632496,0.08053519938417311,-0.015811447058436387,0.08157742009098021,0.04112693100690768,-0.009470324052062254,0.012238178773656912,-0.004666626558660399,0.08445889027318239,-0.034770538736771085,-0.004279347060871251
0.0027925268031909274,0.009773843811168246,0.08726646259971647,9.291800875,-0.3759215833333333,-2.6151066666666667,-0.0015800622834682627,0.024677056625632496,0.08053519938417311,-0.015811447058436387,0.08157742009098021,0.04112693100690768,-0.007054592963590247,-0.00845397527458186,0.0022976464856993345,-0.005542633767217735,-0.05557730169291581,-0.03290930678793452
0.016755160819145562,0.02652900463031381,0.08307767239493008,9.299973083333333,-0.26151066666666667,-2.557901208333333,-0.0015800622834682627,0.024677056625632496,0.08053519938417311,-0.015811447058436387,0.08157742009098021,0.04112693100690768,-0.0014963731642979184,0.007460677847617558,-0.002709962875760247,0.006745559368427111,-0.12078462666580944,0.032548370508348794
0.019547687622336492,0.01117010721276371,0.08866272600131193,9.283628666666665,-0.016344416666666667,-2.631451083333333,-0.0015800622834682627,0.024677056625632496,0.08053519938417311,-0.015811447058436387,0.08157742009098021,0.04112693100690768,0.004587907686411545,-0.0022655107579292694,0.0016126673386375994,-0.23428905045623843,-0.06796307893970638,0.1098844300957347
0.010471975511965976,0.016057029118347832,0.08517206749732328,9.749444541666666,0.122583125,-2.8602729166666667,-0.0015800622834682627,0.024677056625632496,0.08053519938417311,-0.015811447058436387,0.08157742009098021,0.04112693100690768,0.006591643006048153,-0.0022271640772645574,0.0062484155998767344,0.1660236528225312,0.006206305467925286,-0.08608620617937843
-0.0027925268031909274,0.02024581932313422,0.07260569688296412,9.414383999999998,0.11441091666666667,-2.69682875,-0.0015800622834682627,0.024677056625632496,0.08053519938417311,-0.015811447058436387,0.08157742009098021,0.04112693100690768,0.020727668484418746,-0.012521224869026626,0.006570305909268052,-0.2544433017143595,0.11296294473981704,-0.9652351907691036
-0.013962634015954637,0.027925268031909273,0.06632251157578452,9.447072833333333,0.14709974999999997,-2.8194118749999997,-0.0015800622834682627,0.024677056625632496,0.08053519938417311,-0.015811447058436387,0.08157742009098021,0.04112693100690768,0.0013394882308236018,0.004097660046967242,-0.005834512500044517,0.06811152476488391,0.11264778349673576,-0.06953726581798488
-0.016755160819145562,0.019547687622336492,0.07819075048934597,9.308145291666667,-0.07354987499999999,-2.6886565416666666,-0.0015800622834682627,0.024677056625632496,0.08053519938417311,-0.015811447058436387,0.08157742009098021,0.04112693100690768,-0.0005512432876957315,-0.004772813372801361,0.00021472911713363207,-0.029988251998982276,0.14518606487640795,-0.07354920344904621
-0.016057029118347832,0.028623399732707,0.07749261878854824,9.36535075,-0.35957716666666667,-2.549729,-0.0015800622834682627,0.024677056625632496,0.08053519938417311,-0.015811447058436387,0.08157742009098021,0.04112693100690768,-0.0069248015630913595,0.0026098546686499128,-0.006300700046511183,0.04758497674228421,0.046742251417625134,0.048920429186155294
-0.0013962634015954637,0.023038346126325153,0.09005898940290741,9.26728425,-0.4494714583333333,-2.655967708333333,-0.0015800622834682627,0.024677056625632496,0.08053519938417311,-0.015811447058436387,0.08157742009098021,0.04112693100690768,-0.007753860411220776,0.0008035144485795555,-0.0006406291583763027,-0.009560831208845932,-0.13310860049521908,-0.00017502492085890646
0.013962634015954637,0.021642082724729686,0.09145525280450287,9.283628666666665,-0.17978858333333333,-2.6641399166666666,-0.0015800622834682627,0.024677056625632496,0.08053519938417311,-0.015811447058436387,0.08157742009098021,0.04112693100690768,0.000756824123759508,0.005663456089490557,0.004847166391489275,-0.11182459057836855,-0.11676640156195242,-0.03300223351664611
0.012566370614359173,0.010471975511965976,0.08168140899333462,9.504278291666665,0.057205458333333334,-2.606934458333333,-0.0015800622834682627,0.024677056625632496,0.08053519938417311,-0.015811447058436387,0.08157742009098021,0.04112693100690768,0.005080075622326928,-0.006341676393763265,0.0034732182999752813,-0.12397577790812839,0.06321343602971916,0.06916301385882392
0.0020943951023931952,0.023038346126325153,0.07400196028455958,9.749444541666666,-0.06537766666666667,-2.754034208333333,-0.0015800622834682627,0.024677056625632496,0.08053519938417311,-0.015811447058436387,0.08157742009098021,0.04112693100690768,0.00742098064598456,-0.00466405107469727,0.01051614292455115,0.16213429735577123,0.15346602213556576,-0.04486394475948109
-0.012566370614359173,0.032114058236695664,0.05375614096142535,9.422556208333333,-0.367749375,-2.672312125,-0.0015800622834682627,0.024677056625632496,0.08053519938417311,-0.015811447058436387,0.08157742009098021,0.04112693100690768,0.0030777866308008515,0.017430536357372146,0.0005856197051197161,0.04351757119687972,-0.16069212972392877,0.10182298893505279
-0.01884955592153876,-0.0027925268031909274,0.05235987755982988,9.332661916666666,-0.04086104166666667,-2.8847895416666667,-0.0015800622834682627,0.024677056625632496,0.08053519938417311,-0.015811447058436387,0.08157742009098021,0.04112693100690768,0.0014096414267286757,-0.002724602168840214,0.005067276819299434,-0.10372674622420756,0.21129578216775854,-0.17233593058755622
-0.021642082724729686,0.0027925268031909274,0.041887902047863905,9.536967125,-0.45764366666666667,-2.549729,-0.0015800622834682627,0.024677056625632496,0.08053519938417311,-0.015811447058436387,0.08157742009098021,0.04112693100690768,-0.03060590934269219,0.04584205568009333,0.013311744286594583,-0.19755095240065218,0.7411831673543762,-1.1541448699148802
-0.00767944870877505,-0.025132741228718346,0.04537856055185257,9.36535075,-0.4739880833333333,-2.6886565416666666,-0.0015800622834682627,0.024677056625632496,0.08053519938417311,-0.015811447058436387,0.08157742009098021,0.04112693100690768,-0.011364994223917178,-0.00365861390351843,-0.006424560154610175,-0.15289955796962598,-0.15251753518034045,-0.033740696795885615
0.0153588974175501,-0.01815142422074103,0.05864306286700947,9.667722458333333,-0.16344416666666667,-2.631451083333333,-0.0015800622834682627,0.024677056625632496,0.08053519938417311,-0.015811447058436387,0.08157742009098021,0.04112693100690768,-0.002905312417363539,-0.01581762906480907,-0.013481047834691206,-0.10785100157328023,-0.3167281636636258,0.1911552907396031
0.021642082724729686,0.013962634015954637,0.08517206749732328,9.880199875,0.4739880833333333,-3.023717083333333,-0.0015800622834682627,0.024677056625632496,0.08053519938417311,-0.015811447058436387,0.08157742009098021,0.04112693100690768,0.011102767983538089,-0.01417865942055194,0.00815924437824666,0.15393868637247557,0.1693928324503496,-0.11012560975710342
-0.0006981317007977319,0.041887902047863905,0.06911503837897544,9.569655958333334,0.13892754166666665,-2.811239666666667,-0.0015800622834682627,0.024677056625632496,0.08053519938417311,-0.015811447058436387,0.08157742009098021,0.04112693100690768,0.002729779495618645,0.005821586754081225,-0.010037288231210474,0.17040613806053517,0.08788834832881286,0.10638159398884378
-0.006283185307179587,0.030019663134302467,0.08866272600131193,9.226423208333333,-0.032688833333333334,-3.0318892916666664,-0.0015800622834682627,0.024677056625632496,0.08053519938417311,-0.015811447058436387,0.08157742009098021,0.04112693100690768,-0.005438795712841462,-0.016134193821758347,-0.025703176798188548,-0.02575364051841961,-0.08466664749798847,-0.06905602263176115
0.0041887902047863905,0.06213372137099814,0.14032447186034408,9.275456458333332,0.13892754166666665,-2.9011339583333333,-0.0015800622834682627,0.024677056625632496,0.08053519938417311,-0.015811447058436387,0.08157742009098021,0.04112693100690768,0.0036351893293064368,0.003453647313529112,-0.019318586859158764,0.227743920540379,-0.011962562333328182,-0.1341432511801736
-0.0027925268031909274,0.05515240436302082,0.17872171540421936,8.817812791666666,0.16344416666666667,-2.6396232916666666,-0.0015800622834682627,0.024677056625632496,0.08053519938417311,-0.015811447058436387,0.08157742009098021,0.04112693100690768,0.007877612476586722,0.003933387914109481,0.0006599443697620137,-0.2384764311004794,0.2897773081454547,0.11891527003660875
-0.01815142422074103,0.04677482395344803,0.17732545200262387,9.291800875,-0.416782625,-2.8847895416666667,-0.0015800622834682627,0.024677056625632496,0.08053519938417311,-0.015811447058436387,0.08157742009098021,0.04112693100690768,-0.0021610785079556227,0.004096444528002299,0.019017401290722994,0.19882999321099734,0.2536948634736913,-0.2733260322377054
-0.013962634015954637,0.039095375244672985,0.13962634015954636,8.891362666666666,-0.9234595416666666,-2.3454237916666667,-0.0015800622834682627,0.024677056625632496,0.08053519938417311,-0.015811447058436387,0.08157742009098021,0.04112693100690768,-0.006167044180499786,0.01717478896405024,0.0375508695985989,-0.09143936126374315,0.07099021443680334,0.14285154114501525
-0.0013962634015954637,0.0041887902047863905,0.06422811647339133,9.07115125,-1.0623870833333333,-2.6396232916666666,-0.0015800622834682627,0.024677056625632496,0.08053519938417311,-0.015811447058436387,0.08157742009098021,0.04112693100690768,-0.053959110640383466,-0.002104479624233798,0.0780190258137311,-0.4887340087502067,0.18187174478920645,-1.089804196352316
0.033510321638291124,-0.013962634015954637,0.028623399732707,9.479761666666667,-0.5883989999999999,-2.655967708333333,-0.0015800622834682627,0.024677056625632496,0.08053519938417311,-0.015811447058436387,0.08157742009098021,0.04112693100690768,-0.008178490047259538,-0.0031722571927292145,0.0021870489548988146,-0.042641390345077676,-0.42191823664930195,0.015322835886382514
0.05026548245743669,-0.00767944870877505,0.024434609527920613,9.561483749999999,0.26151066666666667,-2.69682875,-0.0015800622834682627,0.024677056625632496,0.08053519938417311,-0.015811447058436387,0.08157742009098021,0.04112693100690768,0.010749080239465785,-0.02169124770706172,0.00020977290437738857,0.14154339687871403,-0.31164814044573314,-0.0739790921529715
0.029321531433504733,0.03490658503988659,0.023736477827122883,9.275456458333332,0.8907707083333333,-2.557901208333333,-0.0015800622834682627,0.024677056625632496,0.08053519938417311,-0.015811447058436387,0.08157742009098021,0.04112693100690768,0.025517548081660717,0.02012111943764187,-0.00048781283566309673,0.2067931023882864,0.08898865442889267,-0.1146030091351946
-0.02234021442552742,-0.004886921905584123,0.024434609527920613,8.858673833333333,0.7191543333333333,-2.3372515833333334,-0.0015800622834682627,0.024677056625632496,0.08053519938417311,-0.015811447058436387,0.08157742009098021,0.04112693100690768,0.018426228485192906,-0.005796427056676218,0.0017955962399693413,-0.43063257173410985,0.3182338670565975,0.3179826347130297
-0.05864306286700947,0.006283185307179587,0.020943951023931952,9.716755708333332,0.08989429166666667,-2.982856041666666,-0.0015800622834682627,0.024677056625632496,0.08053519938417311,-0.015811447058436387,0.08157742009098021,0.04112693100690768,-0.003018929016993483,-0.006377282517909317,-0.02007733547178386,0.2520322331952767,0.027676388803911437,-0.28633236396702877
-0.05305800926062762,0.01884955592153876,0.06073745796940267,9.210078791666666,0.04086104166666667,-2.4189736666666666,-0.0015800622834682627,0.024677056625632496,0.08053519938417311,-0.015811447058436387,0.08157742009098021,0.04112693100690768,-0.015463512816920294,-0.00047640043175367164,-0.030387882374234912,-0.5040692330449317,0.24305103067938663,0.35520518286739133
-0.021642082724729686,0.019547687622336492,0.12147491593880534,10.215260416666666,-0.44129925,-3.138128,-0.0015800622834682627,0.024677056625632496,0.08053519938417311,-0.015811447058436387,0.08157742009098021,0.04112693100690768,-0.010502412249982825,-0.021035002255408886,-0.0014018790032590993,0.7136887553890024,0.0011366054571551986,-0.5798776808719286
-0.0006981317007977319,0.06213372137099814,0.124965574442794,8.785123958333333,-0.44129925,-1.985846625,-0.0015800622834682627,0.024677056625632496,0.08053519938417311,-0.015811447058436387,0.08157742009098021,0.04112693100690768,-0.007963433048493939,0.027243074657779958,-0.0010643795751377459,-0.32028073272810564,0.06194466034349466,0.34332282820656956
0.0153588974175501,0.006981317007977318,0.12636183784438945,9.422556208333333,-0.563882375,-2.680484333333333,-0.0015800622834682627,0.024677056625632496,0.08053519938417311,-0.015811447058436387,0.08157742009098021,0.04112693100690768,-0.005117853532616454,-0.021094057785540462,0.010131338334764388,-0.3445785632320932,-0.0930733666383947,0.15129671613317752
0.02583087292951608,0.04956735075663895,0.10611601852125524,10.109021708333332,-0.3759215833333333,-2.99102825,-0.0015800622834682627,0.024677056625632496,0.08053519938417311,-0.015811447058436387,0.08157742009098021,0.04112693100690768,-0.00799306159262625,-0.05431261675661363,-0.11301913870478787,-0.06033337927471142,-0.3456184605176491,-1.2430860957316345
0.04328416544945937,0.03630284844148206,0.13055062804917586,9.455245041666666,0.016344416666666667,-2.623278875,-0.0015800622834682627,0.024677056625632496,0.08053519938417311,-0.015811447058436387,0.08157742009098021,0.04112693100690768,0.004309579112053604,-0.008676458793297637,0.004998207765047964,-0.18528176127895324,-0.019898115329054503,0.1148744355426002
0.03420845333908886,0.05305800926062762,0.12077678423800758,9.822994416666667,0.057205458333333334,-2.8602729166666667,-0.0015800622834682627,0.024677056625632496,0.08053519938417311,-0.015811447058436387,0.08157742009098021,0.04112693100690768,0.013911435928665325,0.009275009922299272,0.01891496842901684,0.4687047022847386,0.03405949765851985,-0.3553095326337063
0.006981317007977318,0.03490658503988659,0.08307767239493008,8.883190458333333,-0.008172208333333333,-2.157463,-0.0015800622834682627,0.024677056625632496,0.08053519938417311,-0.015811447058436387,0.08157742009098021,0.04112693100690768,0.010178999598761599,0.01897422702755177,0.01394441048561177,-0.23446447489092498,-0.0876392732440915,0.4002524958108143
-0.013264502315156905,-0.003490658503988659,0.05515240436302082,9.349006333333334,0.17161637500000002,-2.966511625,-0.0015800622834682627,0.024677056625632496,0.08053519938417311,-0.015811447058436387,0.08157742009098021,0.04112693100690768,0.00823311662012381,-0.004780564803935051,0.002311212213374973,-0.16894046895410655,0.019081832770106107,-0.0005702500429145621
-0.030019663134302467,0.006283185307179587,0.05026548245743669,9.684066875,0.13892754166666665,-2.974683833333333,-0.0015800622834682627,0.024677056625632496,0.08053519938417311,-0.015811447058436387,0.08157742009098021,0.04112693100690768,0.0034365421720979287,0.0001686207299174233,-0.006855924249915241,0.06783902903278657,0.12527786492422807,-0.12311985879686264
-0.03700098014227979,0.005585053606381855,0.0635299847725936,9.545139333333333,-0.10623870833333333,-2.7376897916666665,-0.0015800622834682627,0.024677056625632496,0.08053519938417311,-0.015811447058436387,0.08157742009098021,0.04112693100690768,-0.004088043157914582,-0.004051301181057627,0.004634360501075309,0.1905815575269211,0.18238921971173314,-0.2620526367096077
-0.028623399732707,0.013962634015954637,0.05445427266222308,9.161045541666667,-0.465815875,-2.2228406666666665,-0.0015800622834682627,0.024677056625632496,0.08053519938417311,-0.015811447058436387,0.08157742009098021,0.04112693100690768,-0.007600505898283391,0.0012690487936178176,0.002747449731201424,-0.11567739272929176,-0.03396326629475775,0.15907347955755877
-0.013264502315156905,0.010471975511965976,0.048869219055841226,9.389867375,-0.392266,-2.549729,-0.0015800622834682627,0.024677056625632496,0.08053519938417311,-0.015811447058436387,0.08157742009098021,0.04112693100690768,-0.005721424401698478,0.00600980013415563,0.0006504599617447433,0.0964285098861246,-0.2342577418927621,0.15052762875857673
-0.0013962634015954637,-0.0013962634015954637,0.047472955654245766,9.193734375,0.08172208333333333,-2.8602729166666667,-0.0015800622834682627,0.024677056625632496,0.08053519938417311,-0.015811447058436387,0.08157742009098021,0.04112693100690768,-0.0021567563209385025,-0.009174166897459776,-0.006899599416163743,-0.20584418890654377,0.11290692421184338,0.08138693177004795
0.0020943951023931952,0.016755160819145562,0.0614355896702004,9.602344791666665,-0.13892754166666665,-3.0318892916666664,-0.0015800622834682627,0.024677056625632496,0.08053519938417311,-0.015811447058436387,0.08157742009098021,0.04112693100690768,-0.001578402460042366,-0.04619055162636222,-0.005869408534731798,-0.13627739122944474,0.7220545668428061,-1.2997946604083859
0.021642082724729686,0.06422811647339133,0.09354964790689606,9.5124505,-0.392266,-2.6151066666666667,-0.0015800622834682627,0.024677056625632496,0.08053519938417311,-0.015811447058436387,0.08157742009098021,0.04112693100690768,-0.005609108174303957,0.02072133079986446,-0.00909060993951342,0.419567926394755,-0.186613055071418,-0.1588361611909919
0.032812189937493394,0.02234021442552742,0.1117010721276371,8.670713041666666,-0.016344416666666667,-2.3045627499999997,-0.0015800622834682627,0.024677056625632496,0.08053519938417311,-0.015811447058436387,0.08157742009098021,0.04112693100690768,0.005417309448235889,-0.010518098859896269,0.0034790152498049166,-0.29962363651543567,-0.09283999734205799,0.18381554614050927
0.021642082724729686,0.04328416544945937,0.10471975511965977,9.26728425,0.17161637500000002,-2.680484333333333,-0.0015800622834682627,0.024677056625632496,0.08053519938417311,-0.015811447058436387,0.08157742009098021,0.04112693100690768,0.01679829806390894,0.008213947257539623,0.0006522795833298119,-0.017561298567222397,-0.11722914160735765,0.053433279125272515
-0.011868238913561441,0.02652900463031381,0.10332349171806432,9.299973083333333,0.40861041666666664,-2.7948952499999997,-0.0015800622834682627,0.024677056625632496,0.08053519938417311,-0.015811447058436387,0.08157742009098021,0.04112693100690768,0.007254982450973895,-0.0011177564482106033,-0.003481004034846987,-0.2875592817837003,0.1363157555662732,0.30225105014573656
-0.02652900463031381,0.029321531433504733,0.11030480872604163,9.872027666666666,0.13892754166666665,-3.4078108749999996,-0.0015800622834682627,0.024677056625632496,0.08053519938417311,-0.015811447058436387,0.08157742009098021,0.04112693100690768,0.0018687520138278757,-0.020259549904269498,0.005464099013936252,0.19495917678374122,0.2999249431465678,-0.436672712638786
-0.030019663134302467,0.06981317007977318,0.09983283321407566,9.479761666666667,-0.45764366666666667,-2.5415567916666664,-0.0015800622834682627,0.024677056625632496,0.08053519938417311,-0.015811447058436387,0.08157742009098021,0.04112693100690768,-0.011460777046122323,0.01971926390189004,-0.0039227908223511965,0.24391447396399285,0.04230467883357005,-0.04453112505227571
-0.006981317007977318,0.030019663134302467,0.1075122819228507,8.989429166666666,-0.53936575,-2.459834708333333,-0.0015800622834682627,0.024677056625632496,0.08053519938417311,-0.015811447058436387,0.08157742009098021,0.04112693100690768,-0.009295473230982199,0.0028860682851330134,0.009041270384616634,-0.18530763661042116,-0.05568908128855214,0.032703689615771414
0.011868238913561441,0.023736477827122883,0.08936085770210968,9.357178541666666,-0.42495483333333334,-2.5333845833333335,-0.0015800622834682627,0.024677056625632496,0.08053519938417311,-0.015811447058436387,0.08157742009098021,0.04112693100690768,-0.00042708846151358814,0.006699294923906367,0.011532348270163814,-0.08719732269099868,-0.21872063363078342,0.1509105728208791
0.012566370614359173,0.010471975511965976,0.06632251157578452,9.528794916666666,0.016344416666666667,-2.8439284999999996,-0.0015800622834682627,0.024677056625632496,0.08053519938417311,-0.015811447058436387,0.08157742009098021,0.04112693100690768,0.004683036590189918,-0.006951870875584291,-9.0385718097101e-05,-0.13625288288703089,-0.08361872974006719,0.13871469807098097
0.0027925268031909274,0.023736477827122883,0.06632251157578452,9.798477791666667,0.18796079166666665,-3.1299557916666663,-0.0015800622834682627,0.024677056625632496,0.08053519938417311,-0.015811447058436387,0.08157742009098021,0.04112693100690768,0.03173939347325276,0.0223027276487877,0.06390546010058859,-0.06086423236226078,0.6192460917567298,-1.4241795590501638
-0.003490658503988659,0.033510321638291124,0.05864306286700947,9.46341725,-0.3840937916666667,-2.5088679583333335,-0.0015800622834682627,0.024677056625632496,0.08053519938417311,-0.015811447058436387,0.08157742009098021,0.04112693100690768,-0.0034790769593906683,0.012895210886590864,-0.0001357771663133403,0.14974120653302903,-0.05076150352768839,-0.08187236021535992
0.003490658503988659,0.00767944870877505,0.05864306286700947,9.161045541666667,-0.2778550833333333,-2.3535959999999996,-0.0015800622834682627,0.024677056625632496,0.08053519938417311,-0.015811447058436387,0.08157742009098021,0.04112693100690768,-0.0016433350886565935,0.0036891393888398715,-0.0007252413452272645,-0.07098879573787197,-0.1691085865893506,0.0851504995795484
0.006981317007977318,0.0,0.06073745796940267,9.299973083333333,0.06537766666666667,-2.5333845833333335,-0.0015800622834682627,0.024677056625632496,0.08053519938417311,-0.015811447058436387,0.08157742009098021,0.04112693100690768,0.007015914004004821,-0.012794769278589255,-0.0023833561170017235,-0.32828049303765816,-0.10793197199722765,0.24074855639014603
-0.006981317007977318,0.02583087292951608,0.06492624817418906,9.953749749999998,0.2860272916666666,-3.023717083333333,-0.0015800622834682627,0.024677056625632496,0.08053519938417311,-0.015811447058436387,0.08157742009098021,0.04112693100690768,0.010442998897049562,0.0014542904360917602,-0.012643552382213645,0.23971401604811587,-0.11242812699306166,-0.03676943863786822
-0.027925268031909273,0.02234021442552742,0.09075712110370514,9.471589458333332,0.5148491249999999,-2.9583394166666666,-0.0015800622834682627,0.024677056625632496,0.08053519938417311,-0.015811447058436387,0.08157742009098021,0.04112693100690768,0.0017777956468137074,-0.011152323091246051,-0.005243208058752667,-0.14024604427021456,0.3737406203681127,-0.06521902575371065
-0.031415926535897934,0.04468042885105484,0.10053096491487339,9.749444541666666,-0.22882183333333334,-2.8357562916666668,-0.0015800622834682627,0.024677056625632496,0.08053519938417311,-0.015811447058436387,0.08157742009098021,0.04112693100690768,-0.00713118861022743,-0.006358224365768992,0.013740231096199637,0.31727914350807285,0.2960762657573546,-0.29782074621398114
-0.017453292519943295,0.057246799465414,0.07330382858376185,9.112012291666666,-0.8172208333333333,-2.2473572916666664,-0.0015800622834682627,0.024677056625632496,0.08053519938417311,-0.015811447058436387,0.08157742009098021,0.04112693100690768,-0.01600431306259167,0.02300532656887395,-0.009944273661891405,0.21119388407374343,-0.26787668196366293,0.016418574872604008
0.014660765716752367,0.010471975511965976,0.09285151620609833,8.687057458333333,-0.2778550833333333,-2.288218333333333,-0.0015800622834682627,0.024677056625632496,0.08053519938417311,-0.015811447058436387,0.08157742009098021,0.04112693100690768,-0.009340498763907313,-0.0012476912818989278,-0.00817725238049102,-0.6224749721985701,-0.19882982950816175,0.3428558123580009
0.033510321638291124,0.013264502315156905,0.1096066770252439,9.929233125,0.122583125,-2.982856041666666,-0.0015800622834682627,0.024677056625632496,0.08053519938417311,-0.015811447058436387,0.08157742009098021,0.04112693100690768,0.008335249131758763,-0.012314116790847339,0.004764926305990577,0.25591834850993306,-0.08462528339416826,-0.02855886520218765
0.016755160819145562,0.03769911184307752,0.09983283321407566,9.414383999999998,0.29419949999999995,-2.9338227916666666,-0.0015800622834682627,0.024677056625632496,0.08053519938417311,-0.015811447058436387,0.08157742009098021,0.04112693100690768,0.006639196739269397,-0.019594338499702626,-0.02941366278986708,-0.31346927837438165,0.13249455333650104,-0.887678177506311
0.005585053606381855,0.03700098014227979,0.10821041362364843,9.602344791666665,0.14709974999999997,-2.8766173333333334,-0.0015800622834682627,0.024677056625632496,0.08053519938417311,-0.015811447058436387,0.08157742009098021,0.04112693100690768,0.005583904380110377,-0.0012327112427368172,0.010474322198644971,0.20708564604155139,0.22228347878841892,-0.26522780273252755
-0.005585053606381855,0.039095375244672985,0.0879645943005142,9.185562166666665,-0.29419949999999995,-2.3535959999999996,-0.0015800622834682627,0.024677056625632496,0.08053519938417311,-0.015811447058436387,0.08157742009098021,0.04112693100690768,0.0021718817773606095,0.015397575042230481,0.01711537111189399,0.21101244082155315,0.07156840027166729,-0.10234921754523688
-0.009773843811168246,0.008377580409572781,0.05305800926062762,8.760607333333333,-0.43312704166666666,-2.157463,-0.0015800622834682627,0.024677056625632496,0.08053519938417311,-0.015811447058436387,0.08157742009098021,0.04112693100690768,-0.008132446397488046,0.015770752812052185,-0.011724173618346507,-0.31620926338289235,-0.24691264185396333,0.2893719820145026
0.006981317007977318,-0.023736477827122883,0.0767944870877505,9.389867375,0.06537766666666667,-2.7458620000000002,-0.0015800622834682627,0.024677056625632496,0.08053519938417311,-0.015811447058436387,0.08157742009098021,0.04112693100690768,0.008681358736228025,-0.02188969790650985,0.002242002274653034,-0.26304276983930996,-0.059195449096935235,0.0972253245548291
-0.010471975511965976,0.02024581932313422,0.07260569688296412,9.912888708333332,0.18796079166666665,-2.9501672083333332,-0.0015800622834682627,0.024677056625632496,0.08053519938417311,-0.015811447058436387,0.08157742009098021,0.04112693100690768,0.010421505263793198,-0.007525556984170036,0.0018506725593719143,0.2478277151954732,0.03495040128080511,-0.057119238581086515
-0.031415926535897934,0.03490658503988659,0.06841690667817772,9.414383999999998,0.122583125,-2.8439284999999996,-0.0015800622834682627,0.024677056625632496,0.08053519938417311,-0.015811447058436387,0.08157742009098021,0.04112693100690768,-0.004361078896360518,-0.001124990534444584,-0.0008233765831937964,-0.09932051533816826,0.23528617815492284,-0.06932288587890133
-0.023038346126325153,0.03700098014227979,0.07051130178057091,9.610517,-0.34323275000000003,-2.7131731666666665,-0.0015800622834682627,0.024677056625632496,0.08053519938417311,-0.015811447058436387,0.08157742009098021,0.04112693100690768,-0.008083822471822348,-0.0005679758050815054,0.004705463729636635,0.06804385491011752,0.2435535633443595,-0.15506456355612477
-0.006283185307179587,0.03839724354387525,0.06073745796940267,9.471589458333332,-0.8253930416666666,-2.4108014583333333,-0.0015800622834682627,0.024677056625632496,0.08053519938417311,-0.015811447058436387,0.08157742009098021,0.04112693100690768,-0.00807144998173331,0.012578244838019738,0.005854179708926771,0.31321826023662064,-0.2835250976761818,0.004007173759626275
0.009773843811168246,0.013264502315156905,0.048869219055841226,8.842329416666665,-0.2533384583333333,-2.427145875,-0.0015800622834682627,0.024677056625632496,0.08053519938417311,-0.015811447058436387,0.08157742009098021,0.04112693100690768,-0.013465364561449571,0.0035099632987531204,-0.019488799126640966,-0.5121227933789583,-0.24719208130260262,0.2285252804517837
0.03630284844148206,0.006283185307179587,0.0879645943005142,9.863855458333333,0.24516625,-2.8929617499999996,-0.0015800622834682627,0.024677056625632496,0.08053519938417311,-0.015811447058436387,0.08157742009098021,0.04112693100690768,-0.00035956431104086975,-0.02927359375468783,-0.02516548155217092,-0.24821110187978296,0.025148529866805984,-0.7573734647825314
0.01815142422074103,0.033510321638291124,0.10262536001726656,9.741272333333333,0.5230213333333333,-3.113611375,-0.0015800622834682627,0.024677056625632496,0.08053519938417311,-0.015811447058436387,0.08157742009098021,0.04112693100690768,0.016048681931394186,-0.007348949480402352,-0.002136400305946705,0.07236299816810451,0.02183444046153904,-0.08533204759588811
-0.013962634015954637,0.04817108735504349,0.10681415022205297,9.594172583333334,0.48216029166666663,-2.9501672083333332,-0.0015800622834682627,0.024677056625632496,0.08053519938417311,-0.015811447058436387,0.08157742009098021,0.04112693100690768,0.0004073685621616421,-0.0005857855076582472,-0.0067143053208584295,0.12945160892654967,0.22603890216779338,-0.19571697283141656
-0.014660765716752367,0.04956735075663895,0.12077678423800758,9.332661916666666,0.032688833333333334,-2.5660734166666663,-0.0015800622834682627,0.024677056625632496,0.08053519938417311,-0.015811447058436387,0.08157742009098021,0.04112693100690768,0.00506050774449289,0.004536547023550048,0.021215013562621926,0.03956577285605515,0.3488729375881746,-0.056877808204164805
-0.025132741228718346,0.04049163864626844,0.07819075048934597,9.250939833333334,-0.661948875,-2.459834708333333,-0.0015800622834682627,0.024677056625632496,0.08053519938417311,-0.015811447058436387,0.08157742009098021,0.04112693100690768,-0.012375178549875928,0.020805483314112166,0.001915879519498942,0.12113622758727784,-0.0019603656070713983,-0.05329074619383549
0.0,-0.0013962634015954637,0.0747000919853573,9.005773583333333,-0.6537766666666667,-2.3617682083333333,-0.0015800622834682627,0.024677056625632496,0.08053519938417311,-0.015811447058436387,0.08157742009098021,0.04112693100690768,-0.01249952618392484,0.00042163027174373124,-0.009626242229585812,-0.22220188561950444,-0.2678965714375149,0.18318789082933082
0.025132741228718346,-0.0027925268031909274,0.09354964790689606,9.447072833333333,-0.11441091666666667,-2.7376897916666665,-0.0015800622834682627,0.024677056625632496,0.08053519938417311,-0.015811447058436387,0.08157742009098021,0.04112693100690768,0.007675050890726799,-0.008659539248982195,-0.0037696640955438877,-0.14450740153473768,-0.1620828690417881,0.146583998368187
0.009773843811168246,0.014660765716752367,0.10053096491487339,9.733100125,0.21247741666666667,-3.0400614999999998,-0.0015800622834682627,0.024677056625632496,0.08053519938417311,-0.015811447058436387,0.08157742009098021,0.04112693100690768,0.0127415620017936,-0.007865123041103358,0.0048573529944575065,-0.005546038080510381,0.058750950131410476,-0.02862023353945545
-0.0153588974175501,0.030019663134302467,0.09145525280450287,9.741272333333333,0.0980665,-2.99102825,-0.0015800622834682627,0.024677056625632496,0.08053519938417311,-0.015811447058436387,0.08157742009098021,0.04112693100690768,-0.001182836425305307,-0.009781903080520323,0.00556413666522201,0.1745170716566781,0.07966442963089275,-0.24500138530168714
-0.013264502315156905,0.04956735075663895,0.07958701389094143,9.389867375,-0.057205458333333334,-2.5088679583333335,-0.0015800622834682627,0.024677056625632496,0.08053519938417311,-0.015811447058436387,0.08157742009098021,0.04112693100690768,-0.0019230957952469428,0.010910304242207982,0.01460909680723171,0.16612556060576994,0.38231634365526623,-0.11005317551788715
-0.009075712110370514,0.027925268031909273,0.050963614158234416,9.054806833333332,-0.8172208333333333,-2.2963905416666663,-0.0015800622834682627,0.024677056625632496,0.08053519938417311,-0.015811447058436387,0.08157742009098021,0.04112693100690768,-0.011547852013604098,0.04677632060833504,0.06453670747157263,0.17976612673447165,0.9182244024274198,-1.3698517399295418
0.005585053606381855,-0.003490658503988659,0.04677482395344803,9.250939833333334,-0.3840937916666667,-2.5006957499999998,-0.0015800622834682627,0.024677056625632496,0.08053519938417311,-0.015811447058436387,0.08157742009098021,0.04112693100690768,-0.006023473579149376,-0.0003423456655795257,-0.012298390800485585,-0.07112696716754525,-0.34904731315461796,0.15033184098022784
0.017453292519943295,-0.0027925268031909274,0.07190756518216637,9.389867375,0.318716125,-2.811239666666667,-0.0015800622834682627,0.024677056625632496,0.08053519938417311,-0.015811447058436387,0.08157742009098021,0.04112693100690768,0.01033449135167957,-0.015385554267287228,-0.014246413870370192,-0.1894381640207726,-0.2066063746569531,0.1345079032509898
-0.0027925268031909274,0.027925268031909273,0.09983283321407566,9.765788958333333,0.73549875,-3.0890947499999997,-0.0015800622834682627,0.024677056625632496,0.08053519938417311,-0.015811447058436387,0.08157742009098021,0.04112693100690768,0.013487027613904428,-0.011440616504843716,-0.002080125546499673,0.011128399088424024,0.22223682002689196,-0.05277983186611735
-0.030019663134302467,0.050963614158234416,0.10402162341886204,9.741272333333333,0.29419949999999995,-2.99102825,-0.0015800622834682627,0.024677056625632496,0.08053519938417311,-0.015811447058436387,0.08157742009098021,0.04112693100690768,-0.0016558156991055028,-0.0023492001469899828,0.0053457033218665155,0.2682487201156123,0.3326192025761256,-0.3426414764776083
-0.02652900463031381,0.05515240436302082,0.09354964790689606,9.201906583333333,-0.367749375,-2.3127349583333334,-0.0015800622834682627,0.024677056625632496,0.08053519938417311,-0.015811447058436387,0.08157742009098021,0.04112693100690768,-0.007311412818399401,0.008865976723306227,0.011250500397994826,-0.017499301763336125,0.22268150115619903,0.061714630827297175
-0.011868238913561441,0.03700098014227979,0.07051130178057091,9.234595416666666,-0.809048625,-2.4434902916666665,-0.0015800622834682627,0.024677056625632496,0.08053519938417311,-0.015811447058436387,0.08157742009098021,0.04112693100690768,-0.012429986910886879,0.01193611111372975,0.001429290085060767,0.05575325735831904,-0.03453562318453384,-0.06559345964564822
0.012566370614359173,0.013264502315156905,0.06771877497737998,9.1201845,-0.73549875,-2.3209071666666663,-0.0015800622834682627,0.024677056625632496,0.08053519938417311,-0.015811447058436387,0.08157742009098021,0.04112693100690768,-0.007385121351378887,0.008258791713088479,-0.003865937042059299,-0.1404414705725738,-0.2676501393920565,0.14662446969625978
0.027925268031909273,-0.003490658503988659,0.07539822368615504,9.398039583333333,-0.196133,-2.623278875,-0.0015800622834682627,0.024677056625632496,0.08053519938417311,-0.015811447058436387,0.08157742009098021,0.04112693100690768,0.0012074415026077647,-0.014397800587602368,-0.01415083207330032,-0.2017100545482303,-0.362210905771991,0.22849214944590757
0.025132741228718346,0.025132741228718346,0.10402162341886204,9.798477791666667,0.5311935416666667,-3.0890947499999997,-0.0015800622834682627,0.024677056625632496,0.08053519938417311,-0.015811447058436387,0.08157742009098021,0.04112693100690768,0.016287819775675765,-0.008497367213308356,-0.00013380461028453082,0.0926975191652594,0.017775085029247815,-0.11846530311787662
-0.00767944870877505,0.04258603374866164,0.10402162341886204,9.610517,0.4985047083333333,-2.8602729166666667,-0.0015800622834682627,0.024677056625632496,0.08053519938417311,-0.015811447058436387,0.08157742009098021,0.04112693100690768,0.03290659597531877,-0.05617672701828171,0.0005000347922082119,-0.4185206650301088,0.6293719190552273,-0.9661146377289483
-0.01884955592153876,0.05445427266222308,0.08866272600131193,9.635033625,-0.3105439166666667,-2.6396232916666666,-0.0015800622834682627,0.024677056625632496,0.08053519938417311,-0.015811447058436387,0.08157742009098021,0.04112693100690768,-0.0008014844709260291,0.006750847907196187,0.012586912655280965,0.26434862226599254,0.04709949471242249,-0.11810284410092942
-0.017453292519943295,0.04049163864626844,0.0635299847725936,9.103840083333333,-0.4004382083333333,-2.4108014583333333,-0.0015800622834682627,0.024677056625632496,0.08053519938417311,-0.015811447058436387,0.08157742009098021,0.04112693100690768,-0.006157335699842555,0.020075052255833503,0.003773219404920595,0.06799758852592448,0.05549652863641818,-0.028773476442372284
-0.004886921905584123,0.0,0.05585053606381855,8.964912541666667,-0.5066769166666666,-2.3617682083333333,-0.0015800622834682627,0.024677056625632496,0.08053519938417311,-0.015811447058436387,0.08157742009098021,0.04112693100690768,-0.005370576517158359,0.012499903298502505,-0.0037144033034201152,-0.28765766160370737,-0.11602626909852819,0.15855327407536793
0.006283185307179587,-0.024434609527920613,0.06283185307179587,9.536967125,-0.269682875,-2.6886565416666666,-0.0015800622834682627,0.024677056625632496,0.08053519938417311,-0.015811447058436387,0.08157742009098021,0.04112693100690768,-0.0023500903315524127,-0.017739701864344207,-0.014231592338672853,-0.1896354801369505,-0.30450653789574644,0.19933490362041176
0.01117010721276371,0.010471975511965976,0.09145525280450287,9.912888708333332,0.34323275000000003,-3.0972669583333334,-0.0015800622834682627,0.024677056625632496,0.08053519938417311,-0.015811447058436387,0.08157742009098021,0.04112693100690768,0.006052543260201769,-0.010650878469681201,-0.0068913983083178304,0.1660976171015931,-0.0189647804337035,-0.15557754921951175
-0.0013962634015954637,0.031415926535897934,0.1054178868204575,9.577828166666666,0.3840937916666667,-2.7948952499999997,-0.0015800622834682627,0.024677056625632496,0.08053519938417311,-0.015811447058436387,0.08157742009098021,0.04112693100690768,0.00881398433042844,-0.0059784520595436656,0.0028228525916077878,-0.021644962321416373,0.16915967407316898,-0.05683050868287626
-0.01884955592153876,0.04328416544945937,0.0991347015132779,9.618689208333333,0.04903325,-2.6886565416666666,-0.0015800622834682627,0.024677056625632496,0.08053519938417311,-0.015811447058436387,0.08157742009098021,0.04112693100690768,0.0006594978453908162,0.003193529492486865,0.00824362751240656,0.05180079247493874,0.22227447664255578,-0.0652411218952586
-0.02024581932313422,0.03700098014227979,0.08307767239493008,9.5124505,-0.392266,-2.5660734166666663,-0.0015800622834682627,0.024677056625632496,0.08053519938417311,-0.015811447058436387,0.08157742009098021,0.04112693100690768,-0.00900707675252627,0.0019475490805020968,0.008814001142141242,0.22341617007383624,0.08809863559467371,-0.09369395516304153
-0.0020943951023931952,0.032812189937493394,0.06562437987498679,9.062979041666667,-0.563882375,-2.3862848333333333,-0.0015800622834682627,0.024677056625632496,0.08053519938417311,-0.015811447058436387,0.08157742009098021,0.04112693100690768,-0.008374201939987395,0.017908278636847783,-0.0016869674056705641,0.019077204594334513,-0.10406932726544066,-0.004423028584662801
0.014660765716752367,-0.0027925268031909274,0.06841690667817772,9.022118,-0.35140495833333335,-2.3862848333333333,-0.0015800622834682627,0.024677056625632496,0.08053519938417311,-0.015811447058436387,0.08157742009098021,0.04112693100690768,-0.03461837022806846,0.014240695065208706,-0.01182557709582918,-0.4695345711499775,0.135878563547269,-0.5983498956299133
0.014660765716752367,0.003490658503988659,0.08307767239493008,9.741272333333333,0.032688833333333334,-2.9501672083333332,-0.0015800622834682627,0.024677056625632496,0.08053519938417311,-0.015811447058436387,0.08157742009098021,0.04112693100690768,0.004283900909186852,-0.01810941325928505,-0.00767294492540049,0.07615523423554804,-0.17400211633019555,-0.028665936244833493
0.006283185307179587,0.039793506945470715,0.09843656981248018,9.586000375,0.3840937916666667,-2.9011339583333333,-0.0015800622834682627,0.024677056625632496,0.08053519938417311,-0.015811447058436387,0.08157742009098021,0.04112693100690768,0.004559090725306315,-0.005499064857804582,-0.0033297797626074452,0.06424064078342401,0.06277523332152375,-0.08540633093723421
-0.0027925268031909274,0.05026548245743669,0.10471975511965977,9.455245041666666,0.26151066666666667,-2.7376897916666665,-0.0015800622834682627,0.024677056625632496,0.08053519938417311,-0.015811447058436387,0.08157742009098021,0.04112693100690768,0.012076942713417891,0.0007095570222305607,0.011727922262243588,0.035487593574853704,0.14058823718027277,-0.08544418255739229
-0.02652900463031381,0.048869219055841226,0.08168140899333462,9.381695166666667,-0.016344416666666667,-2.574245625,-0.0015800622834682627,0.024677056625632496,0.08053519938417311,-0.015811447058436387,0.08157742009098021,0.04112693100690768,-0.003675838272958615,0.01115035978889582,0.006806625008330506,0.12953569441373172,0.15348423751292148,-0.020150544753559044
-0.019547687622336492,0.02652900463031381,0.06771877497737998,9.1201845,-0.318716125,-2.5415567916666664,-0.0015800622834682627,0.024677056625632496,0.08053519938417311,-0.015811447058436387,0.08157742009098021,0.04112693100690768,-0.008848232660676475,0.007831655575471773,0.001397020435399627,0.031078886097574643,0.12897464152952007,-0.10241831314503312
-0.0013962634015954637,0.010471975511965976,0.06492624817418906,9.054806833333332,-0.5720545833333333,-2.3454237916666667,-0.0015800622834682627,0.024677056625632496,0.08053519938417311,-0.015811447058436387,0.08157742009098021,0.04112693100690768,-0.006237672116598434,0.010448141778830312,-0.000934847720398224,-0.164831846720736,-0.12850207940250918,0.22013541467829845
0.01117010721276371,-0.010471975511965976,0.06702064327658225,9.381695166666667,-0.3105439166666667,-2.7948952499999997,-0.0015800622834682627,0.024677056625632496,0.08053519938417311,-0.015811447058436387,0.08157742009098021,0.04112693100690768,-0.0025114735489767874,-0.007984773661181077,-0.009173258098968299,-0.07932807617206813,-0.19416622306790812,-0.013146870229786703
0.016057029118347832,0.005585053606381855,0.08517206749732328,9.536967125,0.08172208333333333,-2.778550833333333,-0.0015800622834682627,0.024677056625632496,0.08053519938417311,-0.015811447058436387,0.08157742009098021,0.04112693100690768,0.003207720523906316,-0.0080808244113191,-0.007296369570302576,-0.08318405020768148,-0.12511926187887792,0.016131539994549943
0.009773843811168246,0.021642082724729686,0.09983283321407566,9.700411291666665,0.3350605416666666,-2.8194118749999997,-0.0015800622834682627,0.024677056625632496,0.08053519938417311,-0.015811447058436387,0.08157742009098021,0.04112693100690768,0.008159218863257496,-0.007358898225212777,0.004490880886450203,0.04361050025421276,0.07919107976796375,-0.008149804323335697
-0.006283185307179587,0.03630284844148206,0.09075712110370514,9.610517,0.17978858333333333,-2.811239666666667,-0.0015800622834682627,0.024677056625632496,0.08053519938417311,-0.015811447058436387,0.08157742009098021,0.04112693100690768,0.03334212995314879,-0.03115127581547983,0.03744540437785063,0.01882530362837508,0.5367579523236987,-1.1568014567509182
-0.01815142422074103,0.041189770347066175,0.07539822368615504,9.520622708333333,-0.008172208333333333,-2.705000958333333,-0.0015800622834682627,0.024677056625632496,0.08053519938417311,-0.015811447058436387,0.08157742009098021,0.04112693100690768,0.0005246020746229315,0.007031292380800249,0.0032252484139389647,0.06398777463977266,0.20245757952916763,-0.012061294842256227
-0.01884955592153876,0.02652900463031381,0.06841690667817772,9.389867375,-0.40861041666666664,-2.6886565416666666,-0.0015800622834682627,0.024677056625632496,0.08053519938417311,-0.015811447058436387,0.08157742009098021,0.04112693100690768,-0.008632740849798783,-0.0006937090157563001,0.0030993784566167525,0.04765953307003832,0.03498676824369982,-0.08576442983888966
-0.0013962634015954637,0.027925268031909273,0.06213372137099814,9.291800875,-0.4739880833333333,-2.5252123749999997,-0.0015800622834682627,0.024677056625632496,0.08053519938417311,-0.015811447058436387,0.08157742009098021,0.04112693100690768,-0.005884605876926023,0.005990896105890507,-0.008548280010647523,-0.10759370464036729,-0.12845466510799203,0.11419512610583704
0.010471975511965976,0.016057029118347832,0.07958701389094143,9.504278291666665,-0.21247741666666667,-2.7622064166666664,-0.0015800622834682627,0.024677056625632496,0.08053519938417311,-0.015811447058436387,0.08157742009098021,0.04112693100690768,-0.0007250091542420088,-0.0022358443682615756,-0.0069080745043954015,-0.05045145805072153,-0.1535881649909844,-0.012533601320238147
0.011868238913561441,0.02024581932313422,0.09354964790689606,9.602344791666665,0.0980665,-2.7458620000000002,-0.0015800622834682627,0.024677056625632496,0.08053519938417311,-0.015811447058436387,0.08157742009098021,0.04112693100690768,0.005113758048223068,-0.008905073219471918,0.0003433613778509656,-0.0585251591899691,-0.05567002225823757,0.0777786405778802
0.0013962634015954637,0.03839724354387525,0.09285151620609833,9.716755708333332,0.21247741666666667,-2.9093061666666666,-0.0015800622834682627,0.024677056625632496,0.08053519938417311,-0.015811447058436387,0.08157742009098021,0.04112693100690768,0.007687333063090287,-0.0013204032708880103,0.0014625535589609764,0.1826004923629036,0.03432100790309202,-0.11013094705882062
-0.013962634015954637,0.04049163864626844,0.08936085770210968,9.349006333333334,0.14709974999999997,-2.69682875,-0.0015800622834682627,0.024677056625632496,0.08053519938417311,-0.015811447058436387,0.08157742009098021,0.04112693100690768,0.0031811540224815577,0.005291548259384453,0.00601375045212838,-0.030092304638384162,0.13685066295884718,-0.024303430091060403
-0.02024581932313422,0.030019663134302467,0.07749261878854824,9.406211791666665,-0.122583125,-2.655967708333333,-0.0015800622834682627,0.024677056625632496,0.08053519938417311,-0.015811447058436387,0.08157742009098021,0.04112693100690768,-0.005871436501700559,0.0019893456376342783,0.000785929824633494,0.06826126395613821,0.1410549929680242,-0.06135845321807978
-0.008377580409572781,0.02583087292951608,0.07609635538695278,9.26728425,-0.4004382083333333,-2.5415567916666664,-0.0015800622834682627,0.024677056625632496,0.08053519938417311,-0.015811447058436387,0.08157742009098021,0.04112693100690768,-0.007393050921982891,0.003972482573250902,0.0015218844870868629,0.10876386505892038,0.030805879750313226,0.012122445276390587
0.006981317007977318,0.017453292519943295,0.07260569688296412,9.046634625,-0.45764366666666667,-2.574245625,-0.0015800622834682627,0.024677056625632496,0.08053519938417311,-0.015811447058436387,0.08157742009098021,0.04112693100690768,-0.033718564280860765,0.040867861166808885,-0.011944910753264629,0.024113436449567385,0.3652108913875814,-1.0646594122805184
0.012566370614359173,-0.003490658503988659,0.08447393579652555,9.259112041666667,-0.06537766666666667,-2.623278875,-0.0015800622834682627,0.024677056625632496,0.08053519938417311,-0.015811447058436387,0.08157742009098021,0.04112693100690768,0.003783208459404454,-0.0033776807775745673,-0.006001486347769115,-0.16100880701086034,-0.07194955254403843,0.07685541150761534
0.004886921905584123,0.003490658503988659,0.09564404300928926,9.577828166666666,0.08172208333333333,-2.7867230416666664,-0.0015800622834682627,0.024677056625632496,0.08053519938417311,-0.015811447058436387,0.08157742009098021,0.04112693100690768,0.00431526995559389,-0.010665671839798671,0.0009488115011093833,-0.0750092259526825,-0.018868107497719725,0.012052863115866992
-0.003490658503988659,0.024434609527920613,0.09354964790689606,9.724927916666667,0.122583125,-2.8194118749999997,-0.0015800622834682627,0.024677056625632496,0.08053519938417311,-0.015811447058436387,0.08157742009098021,0.04112693100690768,0.00542206602461961,-0.004065551668092983,0.004175738653549294,0.16218948226257693,-0.006217646194330523,-0.03693889157127122
-0.014660765716752367,0.032812189937493394,0.08587019919812101,9.398039583333333,0.13892754166666665,-2.754034208333333,-0.0015800622834682627,0.024677056625632496,0.08053519938417311,-0.015811447058436387,0.08157742009098021,0.04112693100690768,0.0021593371534572936,0.003034132404806377,0.0020448054699939507,-0.013652459597809927,0.14486767538859555,-0.061207477197875275
-0.01884955592153876,0.02652900463031381,0.08098327729253688,9.422556208333333,-0.14709974999999997,-2.6396232916666666,-0.0015800622834682627,0.024677056625632496,0.08053519938417311,-0.015811447058436387,0.08157742009098021,0.04112693100690768,-0.006320411775711755,-0.001454516723481481,0.005381751043406267,0.0067830114593277575,0.1902117646703572,0.02048843675054928
-0.005585053606381855,0.029321531433504733,0.07051130178057091,9.406211791666665,-0.5230213333333333,-2.6886565416666666,-0.0015800622834682627,0.024677056625632496,0.08053519938417311,-0.015811447058436387,0.08157742009098021,0.04112693100690768,-0.008168507024422234,0.004332866324345984,0.0014150240872285716,0.12526927795757425,-0.05513161474086648,-0.049105959750129005
0.010471975511965976,0.02024581932313422,0.06771877497737998,9.152873333333332,-0.40861041666666664,-2.59876225,-0.0015800622834682627,0.024677056625632496,0.08053519938417311,-0.015811447058436387,0.08157742009098021,0.04112693100690768,-0.003031845950261164,0.007831419728176432,-0.008712388276575155,-0.06271950030521244,-0.22280983145519725,0.036368492921761
0.016057029118347832,0.0041887902047863905,0.08517206749732328,9.275456458333332,0.04086104166666667,-2.680484333333333,-0.0015800622834682627,0.024677056625632496,0.08053519938417311,-0.015811447058436387,0.08157742009098021,0.04112693100690768,0.0047847456388852416,-0.005576182427736358,-0.0022496421520522302,-0.2098807390612616,-0.014535451972053502,0.07312015427365093
0.006981317007977318,0.016057029118347832,0.09005898940290741,9.692239083333332,0.07354987499999999,-2.8357562916666668,-0.0015800622834682627,0.024677056625632496,0.08053519938417311,-0.015811447058436387,0.08157742009098021,0.04112693100690768,0.007080408917218989,-0.011464563716712915,0.0029913397456513167,-0.02175854859938669,-0.018726851724388566,0.06953254673589639
-0.006981317007977318,0.03839724354387525,0.08377580409572781,9.733100125,0.11441091666666667,-2.982856041666666,-0.0015800622834682627,0.024677056625632496,0.08053519938417311,-0.015811447058436387,0.08157742009098021,0.04112693100690768,0.023419770594823426,-0.04997432662512347,0.0077628258314298895,-0.08749213781492846,0.2225726414823586,-1.0983595866057794
-0.009773843811168246,0.04049163864626844,0.09145525280450287,9.381695166666667,0.16344416666666667,-2.655967708333333,-0.0015800622834682627,0.024677056625632496,0.08053519938417311,-0.015811447058436387,0.08157742009098021,0.04112693100690768,0.003138892037951605,0.0017678646837762959,0.004548983507517082,-0.005411907836870669,0.10817011674389021,-0.003941396006272123
-0.016057029118347832,0.03630284844148206,0.08237954069413235,9.389867375,-0.04903325,-2.655967708333333,-0.0015800622834682627,0.024677056625632496,0.08053519938417311,-0.015811447058436387,0.08157742009098021,0.04112693100690768,-0.0012895598349616704,-0.00024599508363141326,0.006841589306196311,0.0027818486161325343,0.21060885277380828,-0.03237580422356073
-0.012566370614359173,0.03700098014227979,0.06841690667817772,9.381695166666667,-0.465815875,-2.59876225,-0.0015800622834682627,0.024677056625632496,0.08053519938417311,-0.015811447058436387,0.08157742009098021,0.04112693100690768,-0.008263402094729142,0.006268092193774019,-0.00022972769151538843,0.09268102445643694,-0.022351238777496535,0.04914922293168607
0.003490658503988659,0.024434609527920613,0.06841690667817772,9.193734375,-0.416782625,-2.705000958333333,-0.0015800622834682627,0.024677056625632496,0.08053519938417311,-0.015811447058436387,0.08157742009098021,0.04112693100690768,-0.005190056979448409,0.0056055553699353635,-0.01011238873333873,-0.05465688793000888,-0.17385677280171846,-0.0738074906844513
0.013962634015954637,0.012566370614359173,0.08866272600131193,9.299973083333333,-0.06537766666666667,-2.5660734166666663,-0.0015800622834682627,0.024677056625632496,0.08053519938417311,-0.015811447058436387,0.08157742009098021,0.04112693100690768,0.0037343033022729007,0.0027725233019808945,0.0005267981885452478,-0.15666215224706206,-0.0717882415847642,0.1139597715467154
0.006283185307179587,0.006981317007977318,0.0879645943005142,9.610517,0.08172208333333333,-2.803067458333333,-0.0015800622834682627,0.024677056625632496,0.08053519938417311,-0.015811447058436387,0.08157742009098021,0.04112693100690768,0.004849182863523628,-0.009053350073509306,0.0017538556537698472,-0.017810738128565158,-0.010334925237506976,0.007873336147014444
-0.0027925268031909274,0.025132741228718346,0.08447393579652555,9.643205833333333,0.10623870833333333,-2.827584083333333,-0.0015800622834682627,0.024677056625632496,0.08053519938417311,-0.015811447058436387,0.08157742009098021,0.04112693100690768,0.0008532342874313289,-0.00108390976859029,-0.003989977066202159,0.05167258582586332,0.009811092231041657,-0.01230019788090925
-0.004886921905584123,0.02722713633111154,0.09215338450530061,9.536967125,0.08989429166666667,-2.811239666666667,-0.0015800622834682627,0.024677056625632496,0.08053519938417311,-0.015811447058436387,0.08157742009098021,0.04112693100690768,0.002317031313944752,-0.006207204865286286,0.007225464465220934,0.047718554350853835,0.07542628671827349,-0.10205652314337331
-0.009075712110370514,0.039095375244672985,0.07819075048934597,9.438900625,-0.057205458333333334,-2.6151066666666667,-0.0015800622834682627,0.024677056625632496,0.08053519938417311,-0.015811447058436387,0.08157742009098021,0.04112693100690768,1.3334058031676117e-05,0.006223566012251293,0.0006976290705407083,0.059922412477253155,0.08783468718424306,-0.016107242650186634
-0.009075712110370514,0.02722713633111154,0.0767944870877505,9.316317499999998,-0.22882183333333334,-2.5905900416666663,-0.0015800622834682627,0.024677056625632496,0.08053519938417311,-0.015811447058436387,0.08157742009098021,0.04112693100690768,-0.02818988500111926,0.021696794479848524,0.013402856363895186,0.07469913697103304,0.891571510293946,-1.145517784344358
0.0041887902047863905,0.019547687622336492,0.07749261878854824,9.226423208333333,-0.35957716666666667,-2.549729,-0.0015800622834682627,0.024677056625632496,0.08053519938417311,-0.015811447058436387,0.08157742009098021,0.04112693100690768,-0.002628564590778964,0.0037039830761220957,-0.004276064247137658,-0.10366384072637944,-0.05119337522879638,-0.00030016835231870136
0.009075712110370514,0.011868238913561441,0.08656833089891874,9.430728416666666,-0.2533384583333333,-2.557901208333333,-0.0015800622834682627,0.024677056625632496,0.08053519938417311,-0.015811447058436387,0.08157742009098021,0.04112693100690768,0.0019548791339352853,0.006710134844167086,9.36328908465886e-05,-0.0014730722339168691,-0.08006613935183514,-0.0005653579637674915
0.005585053606381855,-0.0013962634015954637,0.08587019919812101,9.430728416666666,-0.08989429166666667,-2.5660734166666663,-0.0015800622834682627,0.024677056625632496,0.08053519938417311,-0.015811447058436387,0.08157742009098021,0.04112693100690768,0.005262124389535738,-0.014465249048159148,0.0033815981101697062,-0.17306154128633133,-0.034704252834908925,0.12229982715873852
-0.004886921905584123,0.02722713633111154,0.07888888219014369,9.773961166666666,-0.016344416666666667,-2.8194118749999997,-0.0015800622834682627,0.024677056625632496,0.08053519938417311,-0.015811447058436387,0.08157742009098021,0.04112693100690768,0.0013122060708659106,-0.00389574006126493,0.0011421440087786624,0.2927707022360466,-0.01838872584339948,-0.13473567498640973
-0.00767944870877505,0.03490658503988659,0.0767944870877505,9.185562166666665,0.024516625,-2.557901208333333,-0.0015800622834682627,0.024677056625632496,0.08053519938417311,-0.015811447058436387,0.08157742009098021,0.04112693100690768,-0.0011579423013283623,0.002355654257589078,-0.0006483943086587042,-0.2667338348166316,0.05917509913062545,0.0818504371376636
-0.005585053606381855,0.030019663134302467,0.07749261878854824,9.716755708333332,-0.08989429166666667,-2.729517583333333,-0.0015800622834682627,0.024677056625632496,0.08053519938417311,-0.015811447058436387,0.08157742009098021,0.04112693100690768,0.0029237952702921293,0.00020944868439136413,0.005949254819970787,0.21503538011012177,0.05948133990796429,-0.09816167956743081
-0.01117010721276371,0.029321531433504733,0.06632251157578452,9.283628666666665,-0.20430520833333332,-2.5415567916666664,-0.0015800622834682627,0.024677056625632496,0.08053519938417311,-0.015811447058436387,0.08157742009098021,0.04112693100690768,-0.0038261341669976632,0.004554505347431675,-0.003282352379223168,0.14581805637955914,0.022683553981699453,0.0449253427748332
-0.003490658503988659,0.02024581932313422,0.07260569688296412,8.989429166666666,-0.24516625,-2.6396232916666666,-0.0015800622834682627,0.024677056625632496,0.08053519938417311,-0.015811447058436387,0.08157742009098021,0.04112693100690768,-0.007201251325042145,0.004809379644562358,-0.005317147358782361,-0.17710515803489732,-0.00212586502815009,-0.06968737358664341
0.01117010721276371,0.010471975511965976,0.08307767239493008,9.340834124999999,-0.23699404166666665,-2.5088679583333335,-0.0015800622834682627,0.024677056625632496,0.08053519938417311,-0.015811447058436387,0.08157742009098021,0.04112693100690768,0.003397818555348304,0.007377650334376678,-0.0019680060253800253,-0.07913006613746741,-0.07593554829778869,0.06895217524527852
0.0041887902047863905,-0.0041887902047863905,0.08726646259971647,9.496106083333332,-0.08172208333333333,-2.655967708333333,-0.0015800622834682627,0.024677056625632496,0.08053519938417311,-0.015811447058436387,0.08157742009098021,0.04112693100690768,0.01015485807771697,-0.03394575241962373,0.007777501992900567,-0.47208807653581863,0.10846255027922275,-0.7629684848124243
-0.004886921905584123,0.024434609527920613,0.08098327729253688,9.643205833333333,0.06537766666666667,-2.811239666666667,-0.0015800622834682627,0.024677056625632496,0.08053519938417311,-0.015811447058436387,0.08157742009098021,0.04112693100690768,-0.0022284395942715335,-0.0007632573550955616,-0.004247543661793004,0.18264061387437303,0.06314556229038087,-0.09417729157325883
0.0,0.02583087292951608,0.08936085770210968,9.275456458333332,-0.057205458333333334,-2.631451083333333,-0.0015800622834682627,0.024677056625632496,0.08053519938417311,-0.015811447058436387,0.08157742009098021,0.04112693100690768,-0.0011753390403771756,0.004262056984295886,0.0010679030756885507,-0.18536025242762005,0.005778164145248678,0.10608429476953993
0.0020943951023931952,0.017453292519943295,0.08726646259971647,9.643205833333333,-0.06537766666666667,-2.852100708333333,-0.0015800622834682627,0.024677056625632496,0.08053519938417311,-0.015811447058436387,0.08157742009098021,0.04112693100690768,0.0037397636654320035,-0.0028848479937977124,0.007106241560878664,0.09657038412337943,-0.038916199292227,-0.13494485878516607
-0.005585053606381855,0.023038346126325153,0.07330382858376185,9.447072833333333,0.016344416666666667,-2.5905900416666663,-0.0015800622834682627,0.024677056625632496,0.08053519938417311,-0.015811447058436387,0.08157742009098021,0.04112693100690768,0.0029068096102196255,0.0029766682893947014,0.0013398202348385447,0.09263354733460887,0.06754841278918877,0.07342607301242388
-0.01117010721276371,0.016755160819145562,0.07051130178057091,9.259112041666667,-0.11441091666666667,-2.7458620000000002,-0.0015800622834682627,0.024677056625632496,0.08053519938417311,-0.015811447058436387,0.08157742009098021,0.04112693100690768,-0.0018601052830693287,0.003704928462204298,-0.0041512155675702085,-0.05455838365920468,0.010324802821551588,-0.11480861057068592
-0.006981317007977318,0.009075712110370514,0.07888888219014369,9.36535075,-0.13075533333333333,-2.5252123749999997,-0.0015800622834682627,0.024677056625632496,0.08053519938417311,-0.015811447058436387,0.08157742009098021,0.04112693100690768,0.004295782291649412,0.007974985497572066,-0.0028417653819217863,-0.09559019826668676,-0.07961249469605497,0.1424628251457382
-0.016057029118347832,-0.006981317007977318,0.08447393579652555,9.553311541666666,0.032688833333333334,-2.8194118749999997,-0.0015800622834682627,0.024677056625632496,0.08053519938417311,-0.015811447058436387,0.08157742009098021,0.04112693100690768,0.005313900417271321,-0.01621863008034534,-0.0002903737428600394,-0.009517381417310768,0.01416342825508899,0.015877181311010877
-0.02652900463031381,0.02583087292951608,0.08517206749732328,9.569655958333334,0.008172208333333333,-2.8602729166666667,-0.0015800622834682627,0.024677056625632496,0.08053519938417311,-0.015811447058436387,0.08157742009098021,0.04112693100690768,-0.0034395253333538464,-0.00045030002094362985,-0.0030933266818069056,0.010689781214302228,0.16538183540993978,-0.024552842363625562
-0.019547687622336492,0.02583087292951608,0.09075712110370514,9.545139333333333,-0.318716125,-2.8194118749999997,-0.0015800622834682627,0.024677056625632496,0.08053519938417311,-0.015811447058436387,0.08157742009098021,0.04112693100690768,-0.009716956343762148,-0.0020292649618578323,-0.0024841203273532784,0.05172532521978219,0.042620712451154674,-0.04090399000160647
0.0,0.030019663134302467,0.09634217471008698,9.438900625,-0.4004382083333333,-2.7458620000000002,-0.0015800622834682627,0.024677056625632496,0.08053519938417311,-0.015811447058436387,0.08157742009098021,0.04112693100690768,-0.024949739985893737,-0.023988675617497672,0.034120611632182066,0.0013284345543476842,0.5830899151856266,-1.198698113997625
0.005585053606381855,0.041189770347066175,0.07958701389094143,9.422556208333333,-0.21247741666666667,-2.5905900416666663,-0.0015800622834682627,0.024677056625632496,0.08053519938417311,-0.015811447058436387,0.08157742009098021,0.04112693100690768,-0.005223475634662656,0.009010961217533177,0.009067392812090888,0.08035827656397009,0.03063787071165658,0.036787243761489334
0.0153588974175501,0.023038346126325153,0.0614355896702004,9.259112041666667,-0.269682875,-2.672312125,-0.0015800622834682627,0.024677056625632496,0.08053519938417311,-0.015811447058436387,0.08157742009098021,0.04112693100690768,-0.005782304980831035,0.006007197292735907,0.00253475606354817,0.03946541199743862,0.03922492875569452,-0.06153206728479741
0.02722713633111154,0.010471975511965976,0.056548667764616284,9.177389958333332,-0.34323275000000003,-2.557901208333333,-0.0015800622834682627,0.024677056625632496,0.08053519938417311,-0.015811447058436387,0.08157742009098021,0.04112693100690768,-0.0015938264609380358,0.0008793851397020248,-0.002479531339190891,-0.09553572036321063,-0.3001474135069963,0.09369260689566147
0.0307177948351002,0.009075712110370514,0.0614355896702004,9.36535075,0.26151066666666667,-2.754034208333333,-0.0015800622834682627,0.024677056625632496,0.08053519938417311,-0.015811447058436387,0.08157742009098021,0.04112693100690768,0.0077564246214086845,-0.0060815300082751435,-0.0004398580743641787,-0.025898765279150932,-0.05093841147305972,0.09357850556837274
0.014660765716752367,0.02024581932313422,0.06213372137099814,9.414383999999998,0.367749375,-2.9501672083333332,-0.0015800622834682627,0.024677056625632496,0.08053519938417311,-0.015811447058436387,0.08157742009098021,0.04112693100690768,0.008487295320080726,-0.0007993609226442538,-0.008354876025097432,-0.03420584999866338,0.05524530925130242,-0.08185149885279015
-0.0013962634015954637,0.02234021442552742,0.07888888219014369,9.479761666666667,0.26151066666666667,-2.7948952499999997,-0.0015800622834682627,0.024677056625632496,0.08053519938417311,-0.015811447058436387,0.08157742009098021,0.04112693100690768,0.007543970263577823,-0.006021418899172743,7.839545257593542e-05,-0.0012344180207883861,-0.02256304852562386,-0.0898715273351073
-0.016755160819145562,0.03420845333908886,0.07888888219014369,9.479761666666667,0.3105439166666667,-2.623278875,-0.0015800622834682627,0.024677056625632496,0.08053519938417311,-0.015811447058436387,0.08157742009098021,0.04112693100690768,0.005981329849533995,-0.0003739986364821911,-0.0032534610222724014,0.15795444587006735,0.10834180320440076,-0.020312516821358123
-0.028623399732707,0.03490658503988659,0.08517206749732328,9.161045541666667,0.0980665,-2.5905900416666663,-0.0015800622834682627,0.024677056625632496,0.08053519938417311,-0.015811447058436387,0.08157742009098021,0.04112693100690768,0.004875541531202131,0.012820756030471479,-0.004409749470465498,-0.005460757176604851,0.16535830137359253,0.06533036819736043
-0.03839724354387525,0.009075712110370514,0.0942477796076938,9.16921775,-0.22882183333333334,-2.729517583333333,-0.0015800622834682627,0.024677056625632496,0.08053519938417311,-0.015811447058436387,0.08157742009098021,0.04112693100690768,-0.002555033285800669,-0.005728933348810494,0.0026037023807310464,-0.26306974808889794,0.18573958156403028,0.007753806449278735
-0.033510321638291124,0.02024581932313422,0.08866272600131193,9.692239083333332,-0.5965712083333333,-2.754034208333333,-0.0015800622834682627,0.024677056625632496,0.08053519938417311,-0.015811447058436387,0.08157742009098021,0.04112693100690768,-0.02154929977403238,-0.023988986494351723,-0.02788718801341099,-0.16358632878877433,0.7697873689366972,-1.0163141087639145
-0.0027925268031909274,0.04049163864626844,0.10262536001726656,9.5124505,-0.6292600416666666,-2.6641399166666666,-0.0015800622834682627,0.024677056625632496,0.08053519938417311,-0.015811447058436387,0.08157742009098021,0.04112693100690768,-0.015728215729539485,0.003811070118758027,1.6419310146063017e-05,0.10094619793030594,0.09110637018510788,-0.08967237776612148
0.028623399732707,0.032812189937493394,0.10262536001726656,9.308145291666667,-0.809048625,-2.4925235416666665,-0.0015800622834682627,0.024677056625632496,0.08053519938417311,-0.015811447058436387,0.08157742009098021,0.04112693100690768,-0.011312571980158916,0.001297700057217691,0.004914974013610908,-0.14862300809150886,-0.2560887457841849,0.05326637115171521
0.050963614158234416,0.030019663134302467,0.09285151620609833,9.602344791666665,-0.29419949999999995,-2.606934458333333,-0.0015800622834682627,0.024677056625632496,0.08053519938417311,-0.015811447058436387,0.08157742009098021,0.04112693100690768,0.0026884389045642608,-0.0045685011026829385,0.007555676688489219,0.05199070255851103,-0.32950474355009024,0.028790066595143382
0.04537856055185257,0.039095375244672985,0.07749261878854824,9.496106083333332,0.367749375,-2.672312125,-0.0015800622834682627,0.024677056625632496,0.08053519938417311,-0.015811447058436387,0.08157742009098021,0.04112693100690768,0.016290633532138814,0.006305439172812611,-0.0033603330527115683,0.03540808980843219,-0.1985583480007799,0.06140752618172073
0.013264502315156905,0.02583087292951608,0.08447393579652555,9.422556208333333,0.7681875833333334,-2.803067458333333,-0.0015800622834682627,0.024677056625632496,0.08053519938417311,-0.015811447058436387,0.08157742009098021,0.04112693100690768,0.025333160793644848,-0.004639078908238216,0.016184564964519935,-0.18524262450507972,0.1127001174557093,0.13483401693426494
-0.03700098014227979,0.03560471674068433,0.05166174585903216,9.790305583333332,0.5475379583333333,-3.0809225416666663,-0.0015800622834682627,0.024677056625632496,0.08053519938417311,-0.015811447058436387,0.08157742009098021,0.04112693100690768,0.01137441547196064,-0.0035086412223617417,-0.005780252149643123,0.3500356030383261,0.32561258189332104,-0.3061312035251889
-0.060039326268604934,0.041887902047863905,0.0635299847725936,9.087495666666666,-0.0980665,-2.476179125,-0.0015800622834682627,0.024677056625632496,0.08053519938417311,-0.015811447058436387,0.08157742009098021,0.04112693100690768,-0.007830125462135691,0.00994644767174611,-0.005887870287397219,-0.08298021135063463,0.30899781815677946,-0.028780708224561292
-0.0439822971502571,0.02234021442552742,0.0747000919853573,9.250939833333334,-0.7109821249999999,-2.427145875,-0.0015800622834682627,0.024677056625632496,0.08053519938417311,-0.015811447058436387,0.08157742009098021,0.04112693100690768,-0.016807478264838974,0.00453210600537001,-0.002767761362276932,-0.07504439049211152,-0.06333721040718168,-0.0001310187740807341
-0.01117010721276371,0.013264502315156905,0.08028514559173915,9.398039583333333,-0.5802267916666666,-2.435318083333333,-0.0015800622834682627,0.024677056625632496,0.08053519938417311,-0.015811447058436387,0.08157742009098021,0.04112693100690768,-0.013721581337049394,0.010904855600330044,-0.006357790780526666,0.06787377259044358,-0.25145394225032724,0.06885965197496913
0.016755160819145562,-0.009075712110370514,0.09285151620609833,9.259112041666667,-0.07354987499999999,-2.582417833333333,-0.0015800622834682627,0.024677056625632496,0.08053519938417311,-0.015811447058436387,0.08157742009098021,0.04112693100690768,0.0031273666154369817,0.006715113870375756,0.020654186078530243,-0.6137927884345821,-0.2686061832236519,-0.689000811107242
