angular_velocity_x,angular_velocity_y,angular_velocity_z,linear_acceleration_x,linear_acceleration_y,linear_acceleration_z,fake_gyro_bias_x,fake_gyro_bias_y,fake_gyro_bias_z,fake_acc_bias_x,fake_acc_bias_y,fake_acc_bias_z,fake_gyro_noise_x,gyro_noise_y,gyro_noise_z,fake_acc_noise_x,fake_acc_noise_y,fake_acc_noise_z
0.003490658503988659,0.041189770347066175,0.07819075048934597,8.752435125,-0.34323275000000003,-4.020726499999999,-0.0021362833086976465,0.021064049997321678,0.07665328132169955,-0.028906179282543163,0.13556799261540584,0.060695218074905924,0.0,0.0,0.0,0.0,0.0,0.0
0.013962634015954637,0.039095375244672985,0.08028514559173915,8.793296166666666,-0.32688833333333334,-4.16782625,-0.0021362833086976465,0.021064049997321678,0.07665328132169955,-0.028906179282543163,0.13556799261540584,0.060695218074905924,0.0,0.0,0.0,0.0,0.0,0.0
0.012566370614359173,0.039793506945470715,0.08237954069413235,8.842329416666665,-0.2778550833333333,-4.184170666666667,-0.0021362833086976465,0.021064049997321678,0.07665328132169955,-0.028906179282543163,0.13556799261540584,0.060695218074905924,0.0,0.0,0.0,0.0,0.0,0.0
0.010471975511965976,0.04049163864626844,0.07958701389094143,8.654368624999998,-0.17978858333333333,-4.045243125,-0.0021362833086976465,0.021064049997321678,0.07665328132169955,-0.028906179282543163,0.13556799261540584,0.060695218074905924,0.0,0.0,0.0,0.0,0.0,0.0
0.011868238913561441,0.023038346126325153,0.08866272600131193,8.736090708333332,-0.08172208333333333,-4.004382083333333,-0.0021362833086976465,0.021064049997321678,0.07665328132169955,-0.028906179282543163,0.13556799261540584,0.060695218074905924,0.0,0.0,0.0,0.0,0.0,0.0
0.01117010721276371,0.016057029118347832,0.08726646259971647,8.858673833333333,-0.024516625,-4.037070916666667,-0.0021362833086976465,0.021064049997321678,0.07665328132169955,-0.028906179282543163,0.13556799261540584,0.060695218074905924,0.0,0.0,0.0,0.0,0.0,0.0
0.0006981317007977319,0.004886921905584123,0.08936085770210968,9.005773583333333,0.024516625,-3.9635210416666666,-0.0021362833086976465,0.021064049997321678,0.07665328132169955,-0.028906179282543163,0.13556799261540584,0.060695218074905924,0.0,0.0,0.0,0.0,0.0,0.0
-0.006283185307179587,0.011868238913561441,0.08028514559173915,9.103840083333333,0.13892754166666665,-3.8899711666666663,-0.0021362833086976465,0.021064049997321678,0.07665328132169955,-0.028906179282543163,0.13556799261540584,0.060695218074905924,0.0,0.0,0.0,0.0,0.0,0.0
-0.01117010721276371,0.01117010721276371,0.07539822368615504,9.030290208333332,0.06537766666666667,-3.8082490833333327,-0.0021362833086976465,0.021064049997321678,0.07665328132169955,-0.028906179282543163,0.13556799261540584,0.060695218074905924,0.0,0.0,0.0,0.0,0.0,0.0
-0.013962634015954637,0.009773843811168246,0.06632251157578452,9.087495666666666,0.032688833333333334,-3.8409379166666664,-0.0021362833086976465,0.021064049997321678,0.07665328132169955,-0.028906179282543163,0.13556799261540584,0.060695218074905924,0.0,0.0,0.0,0.0,0.0,0.0
-0.01884955592153876,0.016755160819145562,0.06283185307179587,9.046634625,-0.0980665,-3.8164212916666664,-0.0021362833086976465,0.021064049997321678,0.07665328132169955,-0.028906179282543163,0.13556799261540584,0.060695218074905924,0.0,0.0,0.0,0.0,0.0,0.0
-0.013264502315156905,0.023736477827122883,0.05794493116621174,9.022118,-0.11441091666666667,-3.77556025,-0.0021362833086976465,0.021064049997321678,0.07665328132169955,-0.028906179282543163,0.13556799261540584,0.060695218074905924,0.0,0.0,0.0,0.0,0.0,0.0
-0.006981317007977318,0.024434609527920613,0.07051130178057091,8.613507583333332,-0.20430520833333332,-3.5957716666666664,-0.0021362833086976465,0.021064049997321678,0.07665328132169955,-0.028906179282543163,0.13556799261540584,0.060695218074905924,0.0,0.0,0.0,0.0,0.0,0.0
0.0027925268031909274,0.0,0.08447393579652555,8.539957708333333,-0.196133,-3.4731885416666666,-0.0021362833086976465,0.021064049997321678,0.07665328132169955,-0.028906179282543163,0.13556799261540584,0.060695218074905924,0.0,0.0,0.0,0.0,0.0,0.0
0.01117010721276371,-0.009075712110370514,0.09494591130849153,8.964912541666667,-0.318716125,-3.702010375,-0.0021362833086976465,0.021064049997321678,0.07665328132169955,-0.028906179282543163,0.13556799261540584,0.060695218074905924,0.0,0.0,0.0,0.0,0.0,0.0
0.017453292519943295,0.016057029118347832,0.08866272600131193,9.790305583333332,-0.196133,-4.077931958333333,-0.0021362833086976465,0.021064049997321678,0.07665328132169955,-0.028906179282543163,0.13556799261540584,0.060695218074905924,0.0,0.0,0.0,0.0,0.0,0.0
0.013962634015954637,0.047472955654245766,0.07609635538695278,9.798477791666667,-0.0980665,-4.274064958333334,-0.0021362833086976465,0.021064049997321678,0.07665328132169955,-0.028906179282543163,0.13556799261540584,0.060695218074905924,0.0,0.0,0.0,0.0,0.0,0.0
0.006283185307179587,0.07888888219014369,0.05445427266222308,9.659550249999999,-0.14709974999999997,-4.225031708333333,-0.0021362833086976465,0.021064049997321678,0.07665328132169955,-0.028906179282543163,0.13556799261540584,0.060695218074905924,0.0,0.0,0.0,0.0,0.0,0.0
0.006283185307179587,0.07190756518216637,0.03490658503988659,8.932223708333334,-0.23699404166666665,-3.947176625,-0.0021362833086976465,0.021064049997321678,0.07665328132169955,-0.028906179282543163,0.13556799261540584,0.060695218074905924,0.0,0.0,0.0,0.0,0.0,0.0
0.01117010721276371,0.04258603374866164,0.008377580409572781,8.989429166666666,-0.13892754166666665,-4.037070916666667,-0.0021362833086976465,0.021064049997321678,0.07665328132169955,-0.028906179282543163,0.13556799261540584,0.060695218074905924,0.0,0.0,0.0,0.0,0.0,0.0
0.00767944870877505,0.039095375244672985,-0.013962634015954637,9.136528916666666,-0.057205458333333334,-4.323098208333334,-0.0021362833086976465,0.021064049997321678,0.07665328132169955,-0.028906179282543163,0.13556799261540584,0.060695218074905924,0.004352853510656979,0.0027171302581334043,0.013182585525103025,-0.052567508673745704,-0.1025767111009789,-0.004324628414799987
-0.0006981317007977319,0.033510321638291124,-0.04049163864626844,9.242767624999999,0.15527195833333335,-4.314926,-0.0021362833086976465,0.021064049997321678,0.07665328132169955,-0.028906179282543163,0.13556799261540584,0.060695218074905924,0.008820103234078948,0.0007784117582344047,0.00582795617923436,0.0452818325763026,0.012603042369543963,-0.06990899651814296
-0.01815142422074103,0.032114058236695664,-0.05166174585903216,9.152873333333332,0.13892754166666665,-4.175998458333333,-0.0021362833086976465,0.021064049997321678,0.07665328132169955,-0.028906179282543163,0.13556799261540584,0.060695218074905924,0.005447852238944043,0.004179991806544828,0.0050277892574453415,0.028889672932547628,0.053593753222492546,-0.09448143891166384
-0.029321531433504733,0.023736477827122883,-0.06213372137099814,9.095667875,0.04086104166666667,-3.9880376666666666,-0.0021362833086976465,0.021064049997321678,0.07665328132169955,-0.028906179282543163,0.13556799261540584,0.060695218074905924,0.0053661796187805064,0.004224974932387781,0.0041015550682009395,0.00872172091002691,0.10710507258733744,-0.000718894453525625
-0.04049163864626844,0.0153588974175501,-0.06981317007977318,9.079323458333333,-0.16344416666666667,-3.9880376666666666,-0.0021362833086976465,0.021064049997321678,0.07665328132169955,-0.028906179282543163,0.13556799261540584,0.060695218074905924,0.0016792402640813512,0.0015422351200976246,0.006798925281140511,-0.0894390698767098,0.12387616662254543,0.02770179923582835
-0.04328416544945937,0.011868238913561441,-0.08377580409572781,9.259112041666667,-0.4004382083333333,-4.045243125,-0.0021362833086976465,0.021064049997321678,0.07665328132169955,-0.028906179282543163,0.13556799261540584,0.060695218074905924,-0.0010145769992638025,-0.0011288014187312801,0.005275368842299971,0.1311655963501617,0.0013653078337320516,-0.04973536133932024
-0.041189770347066175,0.014660765716752367,-0.0942477796076938,8.997601374999999,-0.392266,-3.947176625,-0.0021362833086976465,0.021064049997321678,0.07665328132169955,-0.028906179282543163,0.13556799261540584,0.060695218074905924,-0.00017705159116531243,0.004165591825378296,-0.005159923709940635,-0.04855771599848127,-0.03124661243467723,0.007216560188932069
-0.041189770347066175,0.006283185307179587,-0.08447393579652555,9.095667875,-0.318716125,-3.9635210416666666,-0.0021362833086976465,0.021064049997321678,0.07665328132169955,-0.028906179282543163,0.13556799261540584,0.060695218074905924,0.002110532462376472,-0.0010749347047668589,-0.0053944385569031335,0.09825378352592523,-0.006907789976832607,0.015355228349636528
-0.04537856055185257,0.008377580409572781,-0.07330382858376185,8.899534874999999,-0.29419949999999995,-3.9962098749999995,-0.0021362833086976465,0.021064049997321678,0.07665328132169955,-0.028906179282543163,0.13556799261540584,0.060695218074905924,0.00119715338176991,0.005443266731993341,-0.005085347351669729,-0.028320264974313593,-0.019503273234142297,0.023420329974115094
-0.047472955654245766,-0.0027925268031909274,-0.06283185307179587,8.956740333333332,-0.24516625,-4.045243125,-0.0021362833086976465,0.021064049997321678,0.07665328132169955,-0.028906179282543163,0.13556799261540584,0.060695218074905924,-0.0001994792534029862,-0.00341055362082623,-0.004168906070834534,0.02475790427974171,-0.04746697067038732,0.12967734486578725
-0.04677482395344803,0.0041887902047863905,-0.05445427266222308,9.022118,-0.26151066666666667,-4.151481833333333,-0.0021362833086976465,0.021064049997321678,0.07665328132169955,-0.028906179282543163,0.13556799261540584,0.060695218074905924,-0.0029688500000031085,-0.0027413353421687865,-0.006156262593075818,0.00022784358991702832,0.028992576916048503,-0.0009250535224387075
-0.041189770347066175,0.009773843811168246,-0.041887902047863905,9.022118,-0.3105439166666667,-4.151481833333333,-0.0021362833086976465,0.021064049997321678,0.07665328132169955,-0.028906179282543163,0.13556799261540584,0.060695218074905924,-0.006070106509024232,-0.004180278724637677,-0.0011513860148249866,0.004450366926867635,-0.036425466163726064,-0.009067301945454473
-0.028623399732707,0.01815142422074103,-0.039793506945470715,9.013945791666666,-0.22882183333333334,-4.135137416666667,-0.0021362833086976465,0.021064049997321678,0.07665328132169955,-0.028906179282543163,0.13556799261540584,0.060695218074905924,-0.0014794901355937903,-0.004907488431145263,-0.003844487870608518,0.0003223957359009467,-0.10202420232293982,-0.017021971575096304
-0.02583087292951608,0.027925268031909273,-0.032114058236695664,9.013945791666666,-0.016344416666666667,-4.1024485833333335,-0.0021362833086976465,0.021064049997321678,0.07665328132169955,-0.028906179282543163,0.13556799261540584,0.060695218074905924,0.0013160024309529221,1.7854679152324445e-05,-0.0012835607443327324,0.00040564924300707606,-0.13896596490717045,-0.0004001525433416672
-0.028623399732707,0.027925268031909273,-0.029321531433504733,9.013945791666666,0.269682875,-4.1024485833333335,-0.0021362833086976465,0.021064049997321678,0.07665328132169955,-0.028906179282543163,0.13556799261540584,0.060695218074905924,0.004834677750960922,-0.0027545672816430833,-0.010005012271786422,-0.05668642243669406,-0.04518543997712678,0.028223313502297797
-0.03839724354387525,0.032812189937493394,-0.009773843811168246,9.128356708333332,0.367749375,-4.159654041666666,-0.0021362833086976465,0.021064049997321678,0.07665328132169955,-0.028906179282543163,0.13556799261540584,0.060695218074905924,0.004879957042780497,-0.008078631285008665,-0.006328127709539685,-0.0036977245368521516,-0.012789714479751517,0.007876023551798398
-0.04817108735504349,0.04956735075663895,0.0027925268031909274,9.136528916666666,0.4004382083333333,-4.175998458333333,-0.0021362833086976465,0.021064049997321678,0.07665328132169955,-0.028906179282543163,0.13556799261540584,0.060695218074905924,0.0036238021606221607,-0.002962725169307778,-0.008996351977935402,-0.007577050128247937,0.03601708737263993,-0.08160668867971453
-0.05515240436302082,0.05515240436302082,0.020943951023931952,9.152873333333332,0.3350605416666666,-4.0125542916666666,-0.0021362833086976465,0.021064049997321678,0.07665328132169955,-0.028906179282543163,0.13556799261540584,0.060695218074905924,4.09926831277727e-05,-0.00461972328528931,-0.0006274901170622729,-0.003435821762024154,-0.025306524654063675,-0.03647433386333335
-0.05515240436302082,0.06492624817418906,0.02234021442552742,9.161045541666667,0.392266,-3.9390044166666667,-0.0021362833086976465,0.021064049997321678,0.07665328132169955,-0.028906179282543163,0.13556799261540584,0.060695218074905924,0.0024140034678539076,0.0011738338450801476,-7.321835331455822e-05,0.00888870862071863,-0.005107257240571035,-0.00772383694392786
-0.060039326268604934,0.06213372137099814,0.02234021442552742,9.144701125,0.40861041666666664,-3.92266,-0.0021362833086976465,0.021064049997321678,0.07665328132169955,-0.028906179282543163,0.13556799261540584,0.060695218074905924,0.0018127428277140108,-0.004351046437054314,0.006720604765718531,-0.038572784060821236,-0.12175585551542101,0.12157960587547297
-0.0635299847725936,0.07120943348136866,0.009075712110370514,9.340834124999999,0.5066769166666666,-4.004382083333333,-0.0021362833086976465,0.021064049997321678,0.07665328132169955,-0.028906179282543163,0.13556799261540584,0.060695218074905924,0.0020059903644532116,-0.005864677480863496,0.0019257837883634,0.021248750613729748,0.05663120109315382,-0.003278410855842601
-0.06771877497737998,0.08307767239493008,0.005585053606381855,9.299973083333333,0.4004382083333333,-3.9962098749999995,-0.0021362833086976465,0.021064049997321678,0.07665328132169955,-0.028906179282543163,0.13556799261540584,0.060695218074905924,-0.002516096204320757,-0.005821156907084729,0.0021828627739474272,-0.04810667641196162,0.12642672280855527,0.013235084093828628
-0.06283185307179587,0.0942477796076938,0.0006981317007977319,9.398039583333333,0.15527195833333335,-4.020726499999999,-0.0021362833086976465,0.021064049997321678,0.07665328132169955,-0.028906179282543163,0.13556799261540584,0.060695218074905924,-0.004460445451588604,-0.0061719676723573655,-0.0033911700594289806,0.02171649448705481,0.13843045347043262,-0.015227848922199722
-0.05375614096142535,0.10681415022205297,0.008377580409572781,9.357178541666666,-0.11441091666666667,-3.9880376666666666,-0.0021362833086976465,0.021064049997321678,0.07665328132169955,-0.028906179282543163,0.13556799261540584,0.060695218074905924,-0.01099251697106296,-0.00462187821645102,-0.010805945210579867,0.11556128704631682,0.019332743012578413,-0.031350532120394334
-0.031415926535897934,0.11588986233242347,0.029321531433504733,9.128356708333332,-0.14709974999999997,-3.92266,-0.0021362833086976465,0.021064049997321678,0.07665328132169955,-0.028906179282543163,0.13556799261540584,0.060695218074905924,-0.011538949404867932,-0.00044066877454744627,-0.01623245845733015,0.0668645163790327,0.04724438588347708,0.001629251763020288
-0.009075712110370514,0.1165879940332212,0.06213372137099814,8.997601374999999,-0.23699404166666665,-3.92266,-0.0021362833086976465,0.021064049997321678,0.07665328132169955,-0.028906179282543163,0.13556799261540584,0.060695218074905924,-0.008451253999863092,0.004201626018358236,-0.016101537664430468,-0.06429370351184227,-0.03552693224122225,0.01774659704972246
0.008377580409572781,0.10890854532444616,0.0942477796076938,9.128356708333332,-0.16344416666666667,-3.955348833333333,-0.0021362833086976465,0.021064049997321678,0.07665328132169955,-0.028906179282543163,0.13556799261540584,0.060695218074905924,-0.007814679927572577,-0.00025113389595357116,-0.016819889750431097,0.11145344681268725,-0.07718112343017983,-0.015002756882027114
0.024434609527920613,0.10890854532444616,0.12775810124598494,8.907707083333333,-0.008172208333333333,-3.92266,-0.0021362833086976465,0.021064049997321678,0.07665328132169955,-0.028906179282543163,0.13556799261540584,0.060695218074905924,-0.00737467090803872,0.004437209524215751,-0.02451963440093754,-0.162333427193744,0.011459838962748303,0.050208390994457626
0.03839724354387525,0.10053096491487339,0.17662732030182612,9.234595416666666,-0.032688833333333334,-4.020726499999999,-0.0021362833086976465,0.021064049997321678,0.07665328132169955,-0.028906179282543163,0.13556799261540584,0.060695218074905924,-0.010932719872837551,-0.010237473156623315,-0.017569856028377285,-0.031522130245766035,0.09214822125136832,0.013934798687964278
0.06073745796940267,0.12077678423800758,0.2115339053417127,9.299973083333333,-0.220649625,-4.045243125,-0.0021362833086976465,0.021064049997321678,0.07665328132169955,-0.028906179282543163,0.13556799261540584,0.060695218074905924,-0.012981760817031566,-0.005387766025798127,-0.015251326027205131,-0.07222604682450502,-0.05617962122027402,0.038656120406698496
0.08656833089891874,0.13124875974997358,0.24225170017681294,9.447072833333333,-0.11441091666666667,-4.118792999999999,-0.0021362833086976465,0.021064049997321678,0.07665328132169955,-0.028906179282543163,0.13556799261540584,0.060695218074905924,-0.01168753228090005,-0.009524285798207494,-0.013602219643787815,0.15194406820027517,-0.2301731598689365,0.07910532811078848
0.11030480872604163,0.15079644737231007,0.2701769682087222,9.308145291666667,0.06537766666666667,-4.069759749999999,-0.0021362833086976465,0.021064049997321678,0.07665328132169955,-0.028906179282543163,0.13556799261540584,0.060695218074905924,-0.006853757715100122,-0.008199261196053244,-0.01301026832919011,-0.0675316701781655,-0.1681462423498557,-0.0016671421370178074
0.12356931104119852,0.1668534764906579,0.2960078411382383,9.447072833333333,0.392266,-4.0615875416666665,-0.0021362833086976465,0.021064049997321678,0.07665328132169955,-0.028906179282543163,0.13556799261540584,0.060695218074905924,-0.0030768299474683474,-0.00905240381786164,-0.013542791530416114,-0.030575504130708264,-0.09540850150394613,0.03155006786976888
0.12985249634837812,0.1850049007113989,0.3232349774693498,9.5124505,0.5720545833333333,-4.118792999999999,-0.0021362833086976465,0.021064049997321678,0.07665328132169955,-0.028906179282543163,0.13556799261540584,0.060695218074905924,-0.0017355442519884174,-0.010626667591502376,-0.016767049469308012,-0.06699432105383936,-0.035161777010202386,0.01563542690445814
0.13334315485236678,0.20664698343612864,0.35674529910764097,9.651378041666666,0.6292600416666666,-4.143309625,-0.0021362833086976465,0.021064049997321678,0.07665328132169955,-0.028906179282543163,0.13556799261540584,0.060695218074905924,-0.0002170463801181627,-0.012078052568131482,-0.012208349991638886,0.10064732035028456,0.025798025271382342,-0.04923586757982423
0.1340412865531645,0.23108159296404923,0.38117990863556156,9.455245041666666,0.563882375,-4.037070916666667,-0.0021362833086976465,0.021064049997321678,0.07665328132169955,-0.028906179282543163,0.13556799261540584,0.060695218074905924,0.0012893789183130236,-0.003734499014571661,-0.015098649286036651,-0.0421158877376809,-0.00355786251369115,-0.028315107763291904
0.13124875974997358,0.23806290997202653,0.41119957176986405,9.545139333333333,0.5557101666666666,-3.97169325,-0.0021362833086976465,0.021064049997321678,0.07665328132169955,-0.028906179282543163,0.13556799261540584,0.060695218074905924,-3.4548685547956655e-05,-0.007917393986514393,-0.01623516182991767,0.015198803842146934,-0.016533887347233673,0.0330896479442281
0.13124875974997358,0.2541199390903744,0.44401176170735746,9.520622708333333,0.5720545833333333,-4.028898708333333,-0.0021362833086976465,0.021064049997321678,0.07665328132169955,-0.028906179282543163,0.13556799261540584,0.060695218074905924,0.0012727144715791229,-0.00408130841852147,-0.01658456185885261,-0.058096579269957774,0.039519745470974955,0.058082414628411204
0.1291543646475804,0.2617993877991494,0.47682395164485086,9.643205833333333,0.4739880833333333,-4.135137416666667,-0.0021362833086976465,0.021064049997321678,0.07665328132169955,-0.028906179282543163,0.13556799261540584,0.060695218074905924,0.0003387205356808503,-0.010666825321926272,-0.018143664414680016,0.007056519308514393,0.05521727422258232,0.005335752813293601
0.12845623294678266,0.2834414705238791,0.5131268000863328,9.635033625,0.34323275000000003,-4.135137416666667,-0.0021362833086976465,0.021064049997321678,0.07665328132169955,-0.028906179282543163,0.13556799261540584,0.060695218074905924,-0.0013913467426986002,-0.010950208844444552,-0.017666569582984626,0.09957103118620596,-0.1324453208323711,0.12379227197930212
0.13124875974997358,0.3057816849494065,0.5487315168270172,9.643205833333333,0.18796079166666665,-4.151481833333333,-0.0021362833086976465,0.021064049997321678,0.07665328132169955,-0.028906179282543163,0.13556799261540584,0.060695218074905924,-0.004564762976298396,-0.009729988709154976,-0.015940004952225154,-0.009056359557022513,0.0941527327095309,0.0025104860369198493
0.14032447186034408,0.325329372571743,0.5808455750637129,9.667722458333333,-0.024516625,-4.143309625,-0.0021362833086976465,0.021064049997321678,0.07665328132169955,-0.028906179282543163,0.13556799261540584,0.060695218074905924,-0.003529690759371914,-0.005792898674504198,-0.015863366910158862,-0.041544868830320825,0.04434403167384295,0.05195737431399216
0.14730578886832138,0.3364994797845067,0.6122615015996108,9.757616749999999,-0.13892754166666665,-4.233203916666667,-0.0021362833086976465,0.021064049997321678,0.07665328132169955,-0.028906179282543163,0.13556799261540584,0.060695218074905924,-0.004184653985486104,-0.014061104762829789,-0.014754739349580893,0.0036618374173501317,-0.07095504428999919,0.044086586648376516
0.1556833692778942,0.364424747816416,0.6422811647339132,9.757616749999999,-0.024516625,-4.306753791666666,-0.0021362833086976465,0.021064049997321678,0.07665328132169955,-0.028906179282543163,0.13556799261540584,0.060695218074905924,-0.0031211828359470808,-0.009637460036726952,-0.018217016502561818,-0.03291762261403204,-0.022906478331099468,0.003982331207858467
0.16196655458507375,0.3839724354387525,0.6785840131753954,9.831166624999998,-0.008172208333333333,-4.298581583333333,-0.0021362833086976465,0.021064049997321678,0.07665328132169955,-0.028906179282543163,0.13556799261540584,0.060695218074905924,-0.0003645668329620009,-0.014120294609218757,-0.010557361074519713,-0.03262042048264286,-0.015704169076574386,0.012739466346548572
0.1626646862858715,0.4118977034706618,0.6995279641993272,9.9047165,-0.008172208333333333,-4.306753791666666,-0.0021362833086976465,0.021064049997321678,0.07665328132169955,-0.028906179282543163,0.13556799261540584,0.060695218074905924,0.0017201466992218118,-0.009977276618000854,-0.010705708062428335,0.06956656635064681,0.00026492765095127474,-0.01931515165091682
0.15917402778188286,0.43214352279379603,0.7204719152232593,9.773961166666666,-0.04086104166666667,-4.249548333333333,-0.0021362833086976465,0.021064049997321678,0.07665328132169955,-0.028906179282543163,0.13556799261540584,0.060695218074905924,0.0016480559791729754,-0.012820466443535938,-0.010310128828159749,-0.028335200134710935,-0.028776937348235387,-0.00659315882910692
0.15638150097869194,0.4572762640225143,0.7414158662471911,9.839338833333333,-0.016344416666666667,-4.2168595,-0.0021362833086976465,0.021064049997321678,0.07665328132169955,-0.028906179282543163,0.13556799261540584,0.060695218074905924,0.0004900139253499531,-0.010222443091185512,-0.008544472307114652,0.045315613344534295,0.0034974469797355782,-0.03478949391311156
0.15498523757709648,0.47822021504644624,0.7588691587671345,9.757616749999999,-0.057205458333333334,-4.126965208333333,-0.0021362833086976465,0.021064049997321678,0.07665328132169955,-0.028906179282543163,0.13556799261540584,0.060695218074905924,0.002099710339368638,-0.008496335130689307,-0.007690431416515022,0.017136817394713004,-0.053947907312499974,0.014792434841391377
0.15079644737231007,0.49497537586559187,0.7742280561846846,9.733100125,0.016344416666666667,-4.135137416666667,-0.0021362833086976465,0.021064049997321678,0.07665328132169955,-0.028906179282543163,0.13556799261540584,0.060695218074905924,0.003162818384417285,-0.010401036722499913,-0.009284922231874826,0.04991319204056763,-0.021556887052978594,-0.017672836963326173
0.1445132620651305,0.5152211951887261,0.7923794804054256,9.643205833333333,0.024516625,-4.077931958333333,-0.0021362833086976465,0.021064049997321678,0.07665328132169955,-0.028906179282543163,0.13556799261540584,0.060695218074905924,0.003952069740242273,-0.012768251705784734,-0.0026080188660258163,0.20200272786467668,-0.28098461804312613,0.07862852939092335
0.13683381335635544,0.5417501998190398,0.7979645340118074,9.504278291666665,0.057205458333333334,-3.979865458333333,-0.0021362833086976465,0.021064049997321678,0.07665328132169955,-0.028906179282543163,0.13556799261540584,0.060695218074905924,0.004970896022290513,-0.0009580467051757097,-0.003067414377254944,0.11542046378659572,0.003635203251073309,-0.05383544564990277
0.12636183784438945,0.543844594921433,0.8042477193189871,9.283628666666665,0.016344416666666667,-3.8491101249999997,-0.0021362833086976465,0.021064049997321678,0.07665328132169955,-0.028906179282543163,0.13556799261540584,0.060695218074905924,0.0050875974657584346,-0.0008109393772666729,0.00018683270750778313,-0.0028617541875193297,-0.03699150781868794,-0.021251255548462758
0.1165879940332212,0.5452408583230285,0.8035495876181893,9.299973083333333,0.057205458333333334,-3.7837324583333327,-0.0021362833086976465,0.021064049997321678,0.07665328132169955,-0.028906179282543163,0.13556799261540584,0.060695218074905924,0.004648865140542182,0.0008955290745085795,-0.0031869665648293667,0.1393035716115034,0.10631578018340707,-0.03380023826159865
0.1075122819228507,0.5431464632206354,0.8105309046261666,9.030290208333332,-0.18796079166666665,-3.693838166666666,-0.0021362833086976465,0.021064049997321678,0.07665328132169955,-0.028906179282543163,0.13556799261540584,0.060695218074905924,0.0026496627672924628,0.0020569085169102113,-0.003874307855383239,-0.032687214000472066,0.0529614266899854,0.011270916366243324
0.10192722831646883,0.5396558047166466,0.8182103533349417,9.103840083333333,-0.32688833333333334,-3.693838166666666,-0.0021362833086976465,0.021064049997321678,0.07665328132169955,-0.028906179282543163,0.13556799261540584,0.060695218074905924,0.0007572471389952663,-0.0002611405643274505,-0.00705192083224082,0.15060998294199038,0.09819265633393548,-0.04637923017841177
0.10053096491487339,0.5396558047166466,0.8321729873508963,8.809640583333332,-0.5557101666666666,-3.5794272499999997,-0.0021362833086976465,0.021064049997321678,0.07665328132169955,-0.028906179282543163,0.13556799261540584,0.060695218074905924,-0.003293519178992645,0.0059859756012019165,-0.004049857576777448,0.019431483159062058,0.09391805342330395,-0.005531973995268961
0.10681415022205297,0.5277875658030852,0.8405505677604691,8.77695175,-0.7763597916666666,-3.546738416666667,-0.0021362833086976465,0.021064049997321678,0.07665328132169955,-0.028906179282543163,0.13556799261540584,0.060695218074905924,-0.0034238507452451416,0.005599378292674165,-0.0025737308751709893,0.12074905110316536,0.106377011579482,-0.038790462629128254
0.11379546723003027,0.5166174585903216,0.8454374896660531,8.539957708333333,-1.0215260416666667,-3.4486719166666666,-0.0021362833086976465,0.021064049997321678,0.07665328132169955,-0.028906179282543163,0.13556799261540584,0.060695218074905924,-0.002908630929848057,0.009874054173746597,0.0014741736172491952,-0.04328793032872247,0.053134237994465976,0.01406848511776709
0.12007865253720987,0.4970697709679851,0.8426449628628624,8.629852,-1.1604535833333331,-3.4568441249999995,-0.0021362833086976465,0.021064049997321678,0.07665328132169955,-0.028906179282543163,0.13556799261540584,0.060695218074905924,-0.0035832201037015042,0.007459550454512837,0.0008942682341218388,-0.0029105612719867737,0.07330442365924951,-0.022930003958238947
0.1270599695451872,0.481710873550435,0.8405505677604691,8.638024208333333,-1.3402421666666664,-3.391466458333333,-0.0021362833086976465,0.021064049997321678,0.07665328132169955,-0.028906179282543163,0.13556799261540584,0.060695218074905924,-0.0025377503300255885,0.011881372900929157,0.002568950892345107,-0.018663682542025578,-0.17377223324713603,0.13932239836248314
0.1319468914507713,0.45867252742410985,0.8363617775556828,8.997601374999999,-1.4301364583333334,-3.4650163333333333,-0.0021362833086976465,0.021064049997321678,0.07665328132169955,-0.028906179282543163,0.13556799261540584,0.060695218074905924,-0.005119162443435138,0.007190701266569354,0.0016038543301460507,0.029441793722716613,0.028358955228655287,-0.06001504336649432
0.1424188669627373,0.44470989340815514,0.8328711190516941,8.940395916666665,-1.5200307499999999,-3.3260887916666664,-0.0021362833086976465,0.021064049997321678,0.07665328132169955,-0.028906179282543163,0.13556799261540584,0.060695218074905924,-0.0029855266718399895,0.0066326474465277395,0.001840573121671596,-0.04418437096832722,-0.07404557819218356,0.00517274720345314
0.14870205226991687,0.4307472593922005,0.8286823288469076,9.030290208333332,-1.4056198333333334,-3.317916583333333,-0.0021362833086976465,0.021064049997321678,0.07665328132169955,-0.028906179282543163,0.13556799261540584,0.060695218074905924,-0.0010979112520608807,0.006951213595675473,0.0035546794506447713,0.10702953200943818,-0.04506741429784953,-0.044490585651974744
0.15079644737231007,0.41678462537624583,0.8223991435397281,8.817812791666666,-1.348414375,-3.211677875,-0.0021362833086976465,0.021064049997321678,0.07665328132169955,-0.028906179282543163,0.13556799261540584,0.060695218074905924,0.00096203071665516,0.01620126000818253,0.005725934520659746,-0.01569902908417861,-0.07341797891914426,-0.016385791341691273
0.14870205226991687,0.3846705671395502,0.8105309046261666,8.850501625,-1.2340034583333332,-3.162644625,-0.0021362833086976465,0.021064049997321678,0.07665328132169955,-0.028906179282543163,0.13556799261540584,0.060695218074905924,0.0036632607866854106,0.012763025184846578,0.015209503590783137,0.03742349579796509,-0.06858814892521332,0.0033072135394229952
0.14172073526193954,0.3588396942100341,0.7805112414918641,8.77695175,-1.12776475,-3.1544724166666662,-0.0021362833086976465,0.021064049997321678,0.07665328132169955,-0.028906179282543163,0.13556799261540584,0.060695218074905924,0.0036018143322829425,0.015931604858285802,0.017492589783298314,-0.03596776204396623,-0.10507629296227386,-0.0014022149847196725
0.13473941825396224,0.3274237676741362,0.7449065247511798,8.850501625,-0.9479761666666666,-3.138128,-0.0021362833086976465,0.021064049997321678,0.07665328132169955,-0.028906179282543163,0.13556799261540584,0.060695218074905924,0.0081813326806287,0.013973505398439131,0.023462982274032644,0.05784409112027274,-0.04651036301825076,0.04667648817774344
0.11798425743481668,0.29949849964222697,0.6981317007977318,8.736090708333332,-0.8825985,-3.219850083333333,-0.0021362833086976465,0.021064049997321678,0.07665328132169955,-0.028906179282543163,0.13556799261540584,0.060695218074905924,0.00764736786504081,0.017312997864548096,0.023510168739028055,0.0743266109157976,-0.04496494410108427,-0.05621837279136929
0.10262536001726656,0.2645919146023404,0.6513568768442838,8.588990958333333,-0.8172208333333333,-3.0972669583333334,-0.0021362833086976465,0.021064049997321678,0.07665328132169955,-0.028906179282543163,0.13556799261540584,0.060695218074905924,0.006051467567001931,0.018815618629001576,0.022815972747364834,0.029055962142693032,-0.00721676581582929,-0.02858080606356439
0.09075712110370514,0.22689280275926282,0.6052801845916335,8.5317855,-0.8253930416666666,-3.0318892916666664,-0.0021362833086976465,0.021064049997321678,0.07665328132169955,-0.028906179282543163,0.13556799261540584,0.060695218074905924,0.007372190222084086,0.021675908462710256,0.02673318709277922,0.03679623488388642,0.0636449447553934,-0.0007863164850539417
0.07539822368615504,0.18360863730980345,0.5522221753310059,8.458235625,-0.9724927916666666,-3.023717083333333,-0.0021362833086976465,0.021064049997321678,0.07665328132169955,-0.028906179282543163,0.13556799261540584,0.060695218074905924,0.010567957350767312,0.029735570204475616,0.024017498173406433,-0.01272787462183018,0.027913138870773156,-0.022233631855638904
0.05445427266222308,0.12426744274199628,0.5040510879759623,8.482752249999999,-1.0460426666666667,-2.974683833333333,-0.0021362833086976465,0.021064049997321678,0.07665328132169955,-0.028906179282543163,0.13556799261540584,0.060695218074905924,0.006858599499750153,0.020367606373143502,0.02275956216929398,-0.004760737320075527,0.04548996913432037,-0.03992542031712987
0.041189770347066175,0.08307767239493008,0.45867252742410985,8.490924458333334,-1.1522813749999998,-2.8929617499999996,-0.0021362833086976465,0.021064049997321678,0.07665328132169955,-0.028906179282543163,0.13556799261540584,0.060695218074905924,0.0072331329451012245,0.020835159505408127,0.02380572826329047,-0.005227701373214036,0.07108908232504617,0.01652154149931791
0.02652900463031381,0.041887902047863905,0.41050144006906625,8.499096666666667,-1.3075533333333333,-2.9256505833333333,-0.0021362833086976465,0.021064049997321678,0.07665328132169955,-0.028906179282543163,0.13556799261540584,0.060695218074905924,0.006642748014119889,0.023307588725236344,0.024260015120271563,-0.0013905347981531383,0.07205219181389282,0.01140289735790212
0.013962634015954637,-0.004886921905584123,0.36233035271402286,8.499096666666667,-1.4628252916666666,-2.9501672083333332,-0.0021362833086976465,0.021064049997321678,0.07665328132169955,-0.028906179282543163,0.13556799261540584,0.060695218074905924,0.004087824472098658,0.018972990616300412,0.02324585082659396,0.010786551452891547,0.06096905098722873,-0.009855416898507458
0.005585053606381855,-0.04328416544945937,0.3162536604613725,8.474580041666666,-1.593580625,-2.9338227916666666,-0.0021362833086976465,0.021064049997321678,0.07665328132169955,-0.028906179282543163,0.13556799261540584,0.060695218074905924,-0.00238686835597453,0.021253007460951455,0.016651598069454248,-0.04268680584187092,0.1191639443196576,0.009646611280367826
0.010471975511965976,-0.08517206749732328,0.2827433388230814,8.556302125,-1.838746875,-2.9583394166666666,-0.0021362833086976465,0.021064049997321678,0.07665328132169955,-0.028906179282543163,0.13556799261540584,0.060695218074905924,-0.0003389255382650098,0.01774469559180622,0.027286517460059705,-0.01416133683588961,0.03003547453857265,-0.04849090075411446
0.01117010721276371,-0.12147491593880534,0.2282890661608583,8.580818749999999,-1.9041245416666663,-2.8684451249999996,-0.0021362833086976465,0.021064049997321678,0.07665328132169955,-0.028906179282543163,0.13556799261540584,0.060695218074905924,0.0002830770902220392,0.01823258126731867,0.023844923621892757,-0.014309712106127023,-0.026133043911942884,0.03665397091296243
0.010471975511965976,-0.15777776438028737,0.18011797880581482,8.605335375,-1.8550912916666666,-2.9501672083333332,-0.0021362833086976465,0.021064049997321678,0.07665328132169955,-0.028906179282543163,0.13556799261540584,0.060695218074905924,-0.00022399154315000833,0.013472018948711799,0.021926823755979295,0.4247505304497787,-0.12267925941299,-0.09056831415791712
0.010471975511965976,-0.18360863730980345,0.13683381335635544,8.687057458333333,-1.7978858333333332,-2.8602729166666667,-0.0021362833086976465,0.021064049997321678,0.07665328132169955,-0.028906179282543163,0.13556799261540584,0.060695218074905924,-0.0007992284450872664,0.015366882727947716,0.025408468793901608,0.055748654499699,0.03750228332492811,-0.001310825767448809
0.012566370614359173,-0.21432643214490363,0.08587019919812101,8.572646541666666,-1.871435708333333,-2.8684451249999996,-0.0021362833086976465,0.021064049997321678,0.07665328132169955,-0.028906179282543163,0.13556799261540584,0.060695218074905924,-0.0017375195318155446,0.019006591064498306,0.028874153595562835,-0.06277014986531532,-0.06763879071960324,0.005868798197669217
0.016057029118347832,-0.2527236756887789,0.028623399732707,8.695229666666666,-1.7325081666666666,-2.8929617499999996,-0.0021362833086976465,0.021064049997321678,0.07665328132169955,-0.028906179282543163,0.13556799261540584,0.060695218074905924,-0.0001622473503667456,0.01745268232642792,0.01728946610494304,0.03509521434871984,-0.041966034845542094,-0.010912681729975782
0.016057029118347832,-0.2876302607286655,-0.006283185307179587,8.621679791666667,-1.6426138750000001,-2.8847895416666667,-0.0021362833086976465,0.021064049997321678,0.07665328132169955,-0.028906179282543163,0.13556799261540584,0.060695218074905924,0.004641023979197982,0.012967075273332027,0.025570312249254754,-0.12022744968265024,-0.06561878165789846,0.06559969735333335
0.006981317007977318,-0.3134611336581816,-0.057246799465414,8.858673833333333,-1.5036863333333332,-3.0318892916666664,-0.0021362833086976465,0.021064049997321678,0.07665328132169955,-0.028906179282543163,0.13556799261540584,0.060695218074905924,0.003911466968895719,0.009454042939894039,0.02154675266466739,-0.01814454881717565,0.005089054489231333,-0.004375170481552756
-0.0006981317007977319,-0.3323106895797203,-0.10053096491487339,8.891362666666666,-1.5036863333333332,-3.0400614999999998,-0.0021362833086976465,0.021064049997321678,0.07665328132169955,-0.028906179282543163,0.13556799261540584,0.060695218074905924,0.003019484773883644,0.013828813906470049,0.023808288312142267,-0.013989955773740357,0.030581594120464482,0.01960688888812526
-0.006981317007977318,-0.36023595761162963,-0.14800392056911915,8.915879291666666,-1.5527195833333332,-3.0972669583333334,-0.0021362833086976465,0.021064049997321678,0.07665328132169955,-0.028906179282543163,0.13556799261540584,0.060695218074905924,0.0012645190787699899,0.013517031973040404,0.020942608217760103,0.059490769899256675,0.002950500830850339,0.006953041865093112
-0.009773843811168246,-0.38676496224194346,-0.18989182261698306,8.793296166666666,-1.5445473749999998,-3.1299557916666663,-0.0021362833086976465,0.021064049997321678,0.07665328132169955,-0.028906179282543163,0.13556799261540584,0.060695218074905924,0.004631043473920325,0.013007569293144903,0.019562172302890497,-0.014406341648564497,-0.037000974107217525,0.03477354897612524
-0.01884955592153876,-0.4132939668722573,-0.228987197861656,8.817812791666666,-1.4546530833333333,-3.219850083333333,-0.0021362833086976465,0.021064049997321678,0.07665328132169955,-0.028906179282543163,0.13556799261540584,0.060695218074905924,0.0032454997353729364,0.012332517888310083,0.013744375888963037,0.08368199609883592,0.008733708425312122,0.013955136465043887
-0.025132741228718346,-0.43772857640017787,-0.25621433419276757,8.646196416666667,-1.4546530833333333,-3.268883333333333,-0.0021362833086976465,0.021064049997321678,0.07665328132169955,-0.028906179282543163,0.13556799261540584,0.060695218074905924,-0.0001349343031550581,0.010398864206920677,0.013119118215086436,-0.12510934328848122,-0.0029031831467746876,0.041726259958336544
-0.024434609527920613,-0.45867252742410985,-0.2827433388230814,8.891362666666666,-1.4301364583333334,-3.3751220416666667,-0.0021362833086976465,0.021064049997321678,0.07665328132169955,-0.028906179282543163,0.13556799261540584,0.060695218074905924,0.0010943610560074173,0.00763819145125336,0.015210134141195805,0.005682923460020011,0.055009752376436426,-0.007656304876938598
-0.02652900463031381,-0.4740314248416599,-0.3127630019573839,8.87501825,-1.5200307499999999,-3.3832942499999996,-0.0021362833086976465,0.021064049997321678,0.07665328132169955,-0.028906179282543163,0.13556799261540584,0.060695218074905924,0.001957143735808206,0.0035326727128517934,0.015584183819209571,-0.059733810966229026,-0.03807426118485889,0.03696949949430791
-0.0307177948351002,-0.48031461014883947,-0.34417892849328174,8.989429166666666,-1.4219642499999998,-3.4813607499999994,-0.0021362833086976465,0.021064049997321678,0.07665328132169955,-0.028906179282543163,0.13556799261540584,0.060695218074905924,-0.00035757200321919055,-0.0012868317076350272,0.019906330407627983,0.030220949438883725,0.04419261287584392,-0.03242137484450838
-0.030019663134302467,-0.47822021504644624,-0.3839724354387525,8.9240515,-1.4873419166666666,-3.4404997083333333,-0.0021362833086976465,0.021064049997321678,0.07665328132169955,-0.028906179282543163,0.13556799261540584,0.060695218074905924,0.0013567926583716678,0.0014687901900614884,0.014098189605686505,-0.10454538517264925,-0.024158250797666418,0.008022762676881005
-0.032812189937493394,-0.4810127418496372,-0.4118977034706618,9.128356708333332,-1.4137920416666665,-3.4813607499999994,-0.0021362833086976465,0.021064049997321678,0.07665328132169955,-0.028906179282543163,0.13556799261540584,0.060695218074905924,-0.00037956566302369536,-0.004558399504615352,0.010681680543195009,-0.06784587288198095,0.025536198956996065,0.02833623598230634
-0.032114058236695664,-0.4719370297392667,-0.43353978619539146,9.259112041666667,-1.4383086666666667,-3.563082833333333,-0.0021362833086976465,0.021064049997321678,0.07665328132169955,-0.028906179282543163,0.13556799261540584,0.060695218074905924,-0.0009909384790007328,-0.0023939326103715004,0.00894431601368169,-0.12502005877354547,-0.002355898036366348,0.016121189088087615
-0.030019663134302467,-0.46705010783368256,-0.4509930787153347,9.504278291666665,-1.4056198333333334,-3.6202882916666663,-0.0021362833086976465,0.021064049997321678,0.07665328132169955,-0.028906179282543163,0.13556799261540584,0.060695218074905924,0.0007663628737084696,-0.007290149625336432,0.008520928605854983,0.01831583292861463,0.06336972904585288,-0.02470154475677273
-0.031415926535897934,-0.45308747381772796,-0.46844637123527805,9.46341725,-1.5036863333333332,-3.5957716666666664,-0.0021362833086976465,0.021064049997321678,0.07665328132169955,-0.028906179282543163,0.13556799261540584,0.060695218074905924,-0.0008011211956146468,-0.00332116792949631,0.006829928585155907,-0.014425407931338093,-0.013889401285571708,0.012427482599220819
-0.030019663134302467,-0.4461061568097506,-0.4824090052512327,9.487933875,-1.4464808749999998,-3.6448049166666663,-0.0021362833086976465,0.021064049997321678,0.07665328132169955,-0.028906179282543163,0.13556799261540584,0.060695218074905924,-0.003785854859745184,-0.0028833153107151177,0.007655225033075726,0.030515669732340128,-0.01784667188276345,-0.00355774329285798
-0.02234021442552742,-0.44052110320336874,-0.4977679026687828,9.422556208333333,-1.3811032083333332,-3.6611493333333334,-0.0021362833086976465,0.021064049997321678,0.07665328132169955,-0.028906179282543163,0.13556799261540584,0.060695218074905924,-0.0019539404455289114,-0.0024790645967683583,0.006341160314109377,0.6023705056844998,0.3362630635705437,-0.33675978764416425
-0.01884955592153876,-0.43493604959698695,-0.5096361415823442,9.520622708333333,-1.2748645,-3.702010375,-0.0021362833086976465,0.021064049997321678,0.07665328132169955,-0.028906179282543163,0.13556799261540584,0.060695218074905924,0.00045984226313884596,-0.003123411151851492,0.0064798017575530475,-0.018677428488532783,-0.07406432107510569,0.012849887502892596
-0.01884955592153876,-0.42795473258900957,-0.5229006438975011,9.553311541666666,-1.0950759166666666,-3.751043625,-0.0021362833086976465,0.021064049997321678,0.07665328132169955,-0.028906179282543163,0.13556799261540584,0.060695218074905924,0.0009230643509799615,-0.003866465257778293,0.0011042670366095127,0.005795967020470752,-0.09412776740176956,0.008957761839078324
-0.020943951023931952,-0.4209734155810323,-0.5249950389998943,9.536967125,-0.8744262916666666,-3.7919046666666665,-0.0021362833086976465,0.021064049997321678,0.07665328132169955,-0.028906179282543163,0.13556799261540584,0.060695218074905924,0.0012352092878088372,-0.006004630167515506,0.007078322974384614,-0.0026731044632083514,-0.04106764700398499,-0.0030840330193779592
-0.023736477827122883,-0.4084070449666731,-0.538957673015849,9.536967125,-0.7600153749999999,-3.8082490833333327,-0.0021362833086976465,0.021064049997321678,0.07665328132169955,-0.028906179282543163,0.13556799261540584,0.060695218074905924,0.0033527442317260437,-0.004932837253158718,0.0008658716452353134,-0.03560284735791785,-0.08556270113252629,0.017646776618468998
-0.0307177948351002,-0.3986332011555048,-0.5410520681182421,9.602344791666665,-0.5557101666666666,-3.8654545416666664,-0.0021362833086976465,0.021064049997321678,0.07665328132169955,-0.028906179282543163,0.13556799261540584,0.060695218074905924,0.0053844157172748,-0.010550235514018484,0.003217733379331474,0.029697000753616847,-0.0487461086351253,0.009928460484979923
-0.041189770347066175,-0.37768925013157295,-0.5473352534254218,9.536967125,-0.42495483333333334,-3.906315583333333,-0.0021362833086976465,0.021064049997321678,0.07665328132169955,-0.028906179282543163,0.13556799261540584,0.060695218074905924,0.003350761001817627,-0.008533641004726377,0.00019891094251243738,0.050138174526607585,-0.024496946352745595,-0.00996736430255755
-0.047472955654245766,-0.36023595761162963,-0.5480333851262195,9.430728416666666,-0.34323275000000003,-3.906315583333333,-0.0021362833086976465,0.021064049997321678,0.07665328132169955,-0.028906179282543163,0.13556799261540584,0.060695218074905924,0.00599789922661564,-0.010212438459989537,0.0067566752576371375,-0.011015154630733584,0.02102351303644951,0.023024082508434
-0.060039326268604934,-0.3399901382884954,-0.5612978874413763,9.447072833333333,-0.35140495833333335,-3.97169325,-0.0021362833086976465,0.021064049997321678,0.07665328132169955,-0.028906179282543163,0.13556799261540584,0.060695218074905924,0.005969429147511003,-0.007869121293838707,0.0003954874634807925,0.0668650826128952,0.0046098600161040655,0.003243203720344449
-0.07190756518216637,-0.3239331091701475,-0.5619960191421741,9.308145291666667,-0.32688833333333334,-3.9962098749999995,-0.0021362833086976465,0.021064049997321678,0.07665328132169955,-0.028906179282543163,0.13556799261540584,0.060695218074905924,0.0025574899062814275,-0.006788760802340953,-0.0016584589751275354,-0.01481408906322715,0.04955542552789964,0.003388602476616689
-0.0767944870877505,-0.31066860685499065,-0.5585053606381855,9.332661916666666,-0.392266,-4.020726499999999,-0.0021362833086976465,0.021064049997321678,0.07665328132169955,-0.028906179282543163,0.13556799261540584,0.060695218074905924,0.0014166328596708357,-0.00816655664476981,-0.006248111244345509,0.04271569328249764,0.11468604402775089,-0.008411301405900953
-0.07958701389094143,-0.29461157773664276,-0.5459389900238263,9.242767624999999,-0.5883989999999999,-4.020726499999999,-0.0021362833086976465,0.021064049997321678,0.07665328132169955,-0.028906179282543163,0.13556799261540584,0.060695218074905924,-1.997929715096443e-05,-0.00799985292437046,-0.0060436154293878365,0.36978757629023684,0.3874728757858055,-0.2566629994292685
-0.07958701389094143,-0.2778564169174973,-0.5340707511102649,9.275456458333332,-0.6210878333333334,-3.9962098749999995,-0.0021362833086976465,0.021064049997321678,0.07665328132169955,-0.028906179282543163,0.13556799261540584,0.060695218074905924,-0.00016050552086721665,-0.003737840816513332,-0.011835323691686302,0.02293706492567227,0.04463271640913848,-0.015790623101704218
-0.07888888219014369,-0.2708750999095199,-0.510334273283142,9.226423208333333,-0.6782932916666666,-3.979865458333333,-0.0021362833086976465,0.021064049997321678,0.07665328132169955,-0.028906179282543163,0.13556799261540584,0.060695218074905924,-0.002451686544353377,-0.008162992977709121,-0.01144683070338348,-0.12802060745531144,0.03624929359833589,0.029145184104026695
-0.0747000919853573,-0.2541199390903744,-0.4872959271568168,9.479761666666667,-0.7191543333333333,-4.053415333333333,-0.0021362833086976465,0.021064049997321678,0.07665328132169955,-0.028906179282543163,0.13556799261540584,0.060695218074905924,-0.0024864915375164276,-0.008924756606116423,-0.016441908979449173,-0.02590774815043473,0.011181441314351812,0.009113937575155195
-0.06911503837897544,-0.23596851486963336,-0.4544837372193234,9.528794916666666,-0.7109821249999999,-4.086104166666667,-0.0021362833086976465,0.021064049997321678,0.07665328132169955,-0.028906179282543163,0.13556799261540584,0.060695218074905924,-0.002302783945084527,-0.018801364175297763,-0.010530507331434506,-0.10340310219740355,-0.03413756618629341,0.04659211310375735
-0.06422811647339133,-0.1982694030265558,-0.43353978619539146,9.733100125,-0.612915625,-4.192342875,-0.0021362833086976465,0.021064049997321678,0.07665328132169955,-0.028906179282543163,0.13556799261540584,0.060695218074905924,-0.005527649144443172,-0.01670993816728777,-0.015671178877806564,0.08491336280468326,0.03022322227743991,-0.034318271972726876
-0.05305800926062762,-0.16545721308906244,-0.40212385965949354,9.561483749999999,-0.6456044583333332,-4.135137416666667,-0.0021362833086976465,0.021064049997321678,0.07665328132169955,-0.028906179282543163,0.13556799261540584,0.060695218074905924,-0.00407639422308526,-0.012277258044276857,-0.007121884119909376,-0.04575260158120515,-0.05220361779912314,0.015480649673383749
-0.04537856055185257,-0.14102260356114182,-0.38746309394274114,9.651378041666666,-0.5148491249999999,-4.175998458333333,-0.0021362833086976465,0.021064049997321678,0.07665328132169955,-0.028906179282543163,0.13556799261540584,0.060695218074905924,-0.0014094046222819737,-0.013551599093268628,-0.013783995322343633,0.09305048602642965,-0.09381430498915262,-0.020715644107183264
-0.04258603374866164,-0.11379546723003027,-0.36023595761162963,9.46341725,-0.3023717083333333,-4.143309625,-0.0021362833086976465,0.021064049997321678,0.07665328132169955,-0.028906179282543163,0.13556799261540584,0.060695218074905924,0.001508209632122738,-0.012911472777960266,-0.01352644683882346,-0.025452723999466825,-0.09430767817299435,0.029075054384877626
-0.04537856055185257,-0.0879645943005142,-0.33300882128051806,9.5124505,-0.08989429166666667,-4.208687291666666,-0.0021362833086976465,0.021064049997321678,0.07665328132169955,-0.028906179282543163,0.13556799261540584,0.060695218074905924,0.003943394181652238,-0.013477107923982011,-0.012527642182828952,0.04014911473898194,-0.03779311151803526,0.025642766849511292
-0.05305800926062762,-0.06073745796940267,-0.30857421175259747,9.430728416666666,0.008172208333333333,-4.26589275,-0.0021362833086976465,0.021064049997321678,0.07665328132169955,-0.028906179282543163,0.13556799261540584,0.060695218074905924,0.0030432677522564786,-0.015580814329894693,-0.012308513157698103,0.2980474589052301,0.23538866433747951,-0.20549262551847425
-0.05864306286700947,-0.029321531433504733,-0.2834414705238791,9.504278291666665,0.10623870833333333,-4.208687291666666,-0.0021362833086976465,0.021064049997321678,0.07665328132169955,-0.028906179282543163,0.13556799261540584,0.060695218074905924,0.0025024333100236345,-0.015560882591077156,-0.013520010356317553,0.11442742600320548,0.005991635030006768,-0.03422198698398644
-0.0635299847725936,0.0013962634015954637,-0.25621433419276757,9.275456458333332,0.11441091666666667,-4.143309625,-0.0021362833086976465,0.021064049997321678,0.07665328132169955,-0.028906179282543163,0.13556799261540584,0.060695218074905924,0.001928588625614015,-0.008161704885792638,-0.013852587388485443,-0.020272774460311928,0.03818000279647274,-0.0007290796702958874
-0.06771877497737998,0.01815142422074103,-0.2282890661608583,9.316317499999998,0.057205458333333334,-4.143309625,-0.0021362833086976465,0.021064049997321678,0.07665328132169955,-0.028906179282543163,0.13556799261540584,0.060695218074905924,0.0015088671815287108,-0.010080800663592739,-0.01497145228020808,0.06585940069287213,0.0006607483513814963,-0.008783287872718853
-0.07051130178057091,0.03839724354387525,-0.1982694030265558,9.185562166666665,0.07354987499999999,-4.126965208333333,-0.0021362833086976465,0.021064049997321678,0.07665328132169955,-0.028906179282543163,0.13556799261540584,0.060695218074905924,0.002834008299241337,-0.009339601396519914,-0.016568108798321907,-0.03209053772558031,0.04892853377140738,0.012123277272475568
-0.07609635538695278,0.056548667764616284,-0.16545721308906244,9.250939833333334,-0.008172208333333333,-4.151481833333333,-0.0021362833086976465,0.021064049997321678,0.07665328132169955,-0.028906179282543163,0.13556799261540584,0.060695218074905924,-0.001418923151551246,-0.013295630830816989,-0.015426860450526398,0.0745215712560454,0.1053981205032102,-0.03227106575987253
-0.07330382858376185,0.08377580409572781,-0.13473941825396224,9.103840083333333,-0.20430520833333332,-4.086104166666667,-0.0021362833086976465,0.021064049997321678,0.07665328132169955,-0.028906179282543163,0.13556799261540584,0.060695218074905924,-0.0036565115893731647,-0.007900912921003258,-0.014754483512714762,-0.04781922812586529,0.05157230042546055,0.02551770597837974
-0.06632251157578452,0.0991347015132779,-0.1054178868204575,9.201906583333333,-0.29419949999999995,-4.135137416666667,-0.0021362833086976465,0.021064049997321678,0.07665328132169955,-0.028906179282543163,0.13556799261540584,0.060695218074905924,-0.004967906413200046,-0.011884067172696095,-0.017251142341129386,0.026008436314803006,0.03858919056693979,-0.002844195937541545
-0.056548667764616284,0.1228711793404008,-0.07051130178057091,9.152873333333332,-0.35957716666666667,-4.126965208333333,-0.0021362833086976465,0.021064049997321678,0.07665328132169955,-0.028906179282543163,0.13556799261540584,0.060695218074905924,-0.005825883241398596,-0.008155429322358125,-0.019089532429971676,-0.035233597735112546,0.01313372153341103,-0.0063269052284276464
-0.04468042885105484,0.13962634015954636,-0.032114058236695664,9.226423208333333,-0.3759215833333333,-4.110620791666666,-0.0021362833086976465,0.021064049997321678,0.07665328132169955,-0.028906179282543163,0.13556799261540584,0.060695218074905924,-0.003434464929297194,-0.008866915281012779,-0.014164419992243774,0.014018791819415897,0.05296403218004456,-0.005961342058825593
-0.03769911184307752,0.15707963267948966,-0.0041887902047863905,9.201906583333333,-0.4739880833333333,-4.094276375,-0.0021362833086976465,0.021064049997321678,0.07665328132169955,-0.028906179282543163,0.13556799261540584,0.060695218074905924,-0.006508576071843736,-0.005300646822019962,-0.015711305155439673,0.2749570219127557,0.18358157428563465,-0.11270951206684882
-0.024434609527920613,0.16824973989225336,0.02722713633111154,9.324489708333333,-0.4903325,-4.086104166666667,-0.0021362833086976465,0.021064049997321678,0.07665328132169955,-0.028906179282543163,0.13556799261540584,0.060695218074905924,-0.004471239205311238,-0.010303180092616585,-0.010376402124724422,-0.030707397234238144,0.00660971629172714,-0.03767803081696854
-0.0153588974175501,0.1884955592153876,0.04817108735504349,9.389867375,-0.4985047083333333,-4.004382083333333,-0.0021362833086976465,0.021064049997321678,0.07665328132169955,-0.028906179282543163,0.13556799261540584,0.060695218074905924,-0.0031669441622716,-0.002019924174003923,-0.01080647238089934,-0.006132566337735321,-0.006163574671428429,-0.013133713373869274
-0.009075712110370514,0.19268434942017396,0.06981317007977318,9.406211791666665,-0.48216029166666663,-3.97169325,-0.0021362833086976465,0.021064049997321678,0.07665328132169955,-0.028906179282543163,0.13556799261540584,0.060695218074905924,-0.005095718143523675,-0.008481923151258683,-0.00914600462957762,0.026642743632162173,-0.07222333834712977,0.0036055865704894513
0.0006981317007977319,0.20943951023931953,0.0879645943005142,9.357178541666666,-0.3350605416666666,-3.97169325,-0.0021362833086976465,0.021064049997321678,0.07665328132169955,-0.028906179282543163,0.13556799261540584,0.060695218074905924,-0.0027827586383057427,-0.002465073735986129,-0.011127590668253999,0.043175581301176734,-0.007335663304610381,-0.008489901534805765
0.006283185307179587,0.21432643214490363,0.11030480872604163,9.275456458333332,-0.318716125,-3.947176625,-0.0021362833086976465,0.021064049997321678,0.07665328132169955,-0.028906179282543163,0.13556799261540584,0.060695218074905924,-0.0016022063094310404,-0.0033627588542455796,-0.009764349216064352,0.059363428790184476,0.02066286596058543,0.012039437853867649
0.010471975511965976,0.22130774915288098,0.12985249634837812,9.161045541666667,-0.35957716666666667,-3.9635210416666666,-0.0021362833086976465,0.021064049997321678,0.07665328132169955,-0.028906179282543163,0.13556799261540584,0.060695218074905924,-0.0016153441460905553,0.004408729090129267,-0.009255004055315354,0.0430626104957208,0.03655682650312947,0.011893822026158251
0.013264502315156905,0.21223203704251048,0.14870205226991687,9.079323458333333,-0.43312704166666666,-3.979865458333333,-0.0021362833086976465,0.021064049997321678,0.07665328132169955,-0.028906179282543163,0.13556799261540584,0.060695218074905924,-0.003894380036489079,0.005275721894964846,-0.006045860758210778,0.01842802218775797,-0.045410862752802365,-0.016811661779915707
0.020943951023931952,0.20245819323134223,0.1605702911834783,9.046634625,-0.34323275000000003,-3.9390044166666667,-0.0021362833086976465,0.021064049997321678,0.07665328132169955,-0.028906179282543163,0.13556799261540584,0.060695218074905924,-0.0032164820946692135,0.009781703840397329,-0.006030402163237826,0.03457498275351161,0.027806771780022606,0.0073101400563738705
0.02722713633111154,0.182212373908208,0.17243853009703977,8.981256958333333,-0.4004382083333333,-3.947176625,-0.0021362833086976465,0.021064049997321678,0.07665328132169955,-0.028906179282543163,0.13556799261540584,0.060695218074905924,-0.001273818563750225,0.008899291040375273,-0.0006968361768103906,-0.03931120180304756,-0.009316192023630142,0.011005520015720026
0.030019663134302467,0.16406094968746698,0.17383479349863523,9.062979041666667,-0.3840937916666667,-3.9635210416666666,-0.0021362833086976465,0.021064049997321678,0.07665328132169955,-0.028906179282543163,0.13556799261540584,0.060695218074905924,-0.0009757823262204082,0.013263811183757936,-0.0036133740525112357,0.3140949503727912,0.13175672917762188,-0.04881240695012112
0.032114058236695664,0.13823007675795088,0.18081611050661253,9.022118,-0.4903325,-3.92266,-0.0021362833086976465,0.021064049997321678,0.07665328132169955,-0.028906179282543163,0.13556799261540584,0.060695218074905924,-0.003157728147465647,0.009043830265101716,0.003703832377863808,-0.056020020201499175,0.0028978842522415483,0.005970253413172031
0.03839724354387525,0.12077678423800758,0.17383479349863523,9.136528916666666,-0.4985047083333333,-3.930832208333333,-0.0021362833086976465,0.021064049997321678,0.07665328132169955,-0.028906179282543163,0.13556799261540584,0.060695218074905924,-0.0009381534345684419,0.013654718547706418,0.004223841959866597,0.005122313387221107,0.015134143640810421,-0.015024919520782684
0.04049163864626844,0.09285151620609833,0.16545721308906244,9.128356708333332,-0.5311935416666667,-3.898143375,-0.0021362833086976465,0.021064049997321678,0.07665328132169955,-0.028906179282543163,0.13556799261540584,0.060695218074905924,-0.0009259309523044682,0.01418682939839226,0.005867823060571777,-0.09734586338903613,0.011351920227970278,-0.015685599455717833
0.041887902047863905,0.06422811647339133,0.153588974175501,9.324489708333333,-0.5557101666666666,-3.8654545416666664,-0.0021362833086976465,0.021064049997321678,0.07665328132169955,-0.028906179282543163,0.13556799261540584,0.060695218074905924,-0.002817701692441405,0.013662744974365775,0.0025598984854788773,0.0005548278529314975,0.0319774693074916,0.00841631288237416
0.047472955654245766,0.03700098014227979,0.14870205226991687,9.324489708333333,-0.6210878333333334,-3.881798958333333,-0.0021362833086976465,0.021064049997321678,0.07665328132169955,-0.028906179282543163,0.13556799261540584,0.060695218074905924,-0.0006058714650325994,0.011868660997610284,0.00365832061031197,-0.13889203583433093,-0.013059731801249141,0.015773808600010753
0.048869219055841226,0.013264502315156905,0.14102260356114182,9.602344791666665,-0.5965712083333333,-3.9144877916666663,-0.0021362833086976465,0.021064049997321678,0.07665328132169955,-0.028906179282543163,0.13556799261540584,0.060695218074905924,0.0024333007166024434,0.012367016913359504,0.006974781080581645,0.053244246471288774,0.02417491887855183,-0.02958867652801809
0.0439822971502571,-0.01117010721276371,0.1270599695451872,9.496106083333332,-0.6456044583333332,-3.857282333333333,-0.0021362833086976465,0.021064049997321678,0.07665328132169955,-0.028906179282543163,0.13556799261540584,0.060695218074905924,3.971491111898031e-05,0.012179826638466592,0.005662649919385726,-0.03301656072169627,-0.02872660918196762,-0.0016449174042829876
0.0439822971502571,-0.03560471674068433,0.11588986233242347,9.561483749999999,-0.5883989999999999,-3.857282333333333,-0.0021362833086976465,0.021064049997321678,0.07665328132169955,-0.028906179282543163,0.13556799261540584,0.060695218074905924,0.002550735486149511,0.014037614691762474,0.007510230766527516,0.0649931393456983,-0.00387567761933805,-0.0023099525106848777
0.039095375244672985,-0.0635299847725936,0.10053096491487339,9.430728416666666,-0.5802267916666666,-3.857282333333333,-0.0021362833086976465,0.021064049997321678,0.07665328132169955,-0.028906179282543163,0.13556799261540584,0.060695218074905924,0.00022684491634498313,0.01163551266492782,0.008671123689098205,-0.04559265049148782,-0.03202653916117291,0.03387533369914048
0.03839724354387525,-0.08656833089891874,0.08377580409572781,9.520622708333333,-0.5148491249999999,-3.930832208333333,-0.0021362833086976465,0.021064049997321678,0.07665328132169955,-0.028906179282543163,0.13556799261540584,0.060695218074905924,0.00039524215380144426,0.008919350258458277,0.006532746482583819,0.08883413817440262,0.013355437314493252,0.0211791218746593
0.03769911184307752,-0.10471975511965977,0.07051130178057091,9.340834124999999,-0.53936575,-3.979865458333333,-0.0021362833086976465,0.021064049997321678,0.07665328132169955,-0.028906179282543163,0.13556799261540584,0.060695218074905924,-0.0020613479827288595,0.010980012747225655,0.008269063705523754,-0.029597333908523333,0.017535273429831275,0.02883526215240452
0.041887902047863905,-0.1270599695451872,0.05375614096142535,9.398039583333333,-0.5720545833333333,-4.045243125,-0.0021362833086976465,0.021064049997321678,0.07665328132169955,-0.028906179282543163,0.13556799261540584,0.060695218074905924,-0.0011732838335469188,0.012034795220708832,0.013599656741465323,0.05601920732370529,0.03045343010053524,-0.016575061757308794
0.04468042885105484,-0.15079644737231007,0.02652900463031381,9.283628666666665,-0.6292600416666666,-4.020726499999999,-0.0021362833086976465,0.021064049997321678,0.07665328132169955,-0.028906179282543163,0.13556799261540584,0.060695218074905924,-0.002180727056842484,0.016534564378730528,0.00976283956746999,-0.03027291683387059,-0.0016810843327693117,0.0032251034022068685
0.048869219055841226,-0.18360863730980345,0.006981317007977318,9.340834124999999,-0.6210878333333334,-4.037070916666667,-0.0021362833086976465,0.021064049997321678,0.07665328132169955,-0.028906179282543163,0.13556799261540584,0.060695218074905924,0.001347005049404371,0.009938122482561082,0.007767697653325204,0.03919662025629028,-0.0176832744703016,-0.02606687502328631
0.046076692252650306,-0.20385445663293766,-0.008377580409572781,9.259112041666667,-0.5802267916666666,-3.9962098749999995,-0.0021362833086976465,0.021064049997321678,0.07665328132169955,-0.028906179282543163,0.13556799261540584,0.060695218074905924,-0.0024379582397157807,0.01287456420070403,0.004452543943647279,-0.05930360792132144,-0.0011318739687002659,0.006079318099047265
0.050963614158234416,-0.228987197861656,-0.017453292519943295,9.373522958333332,-0.5720545833333333,-4.020726499999999,-0.0021362833086976465,0.021064049997321678,0.07665328132169955,-0.028906179282543163,0.13556799261540584,0.060695218074905924,0.0004052643565951526,0.00863316756154311,0.0013957717357834896,-0.018325434519250023,0.03582349543636823,-0.014749444265165546
0.05026548245743669,-0.24644049038159932,-0.02024581932313422,9.406211791666665,-0.63743225,-4.004382083333333,-0.0021362833086976465,0.021064049997321678,0.07665328132169955,-0.028906179282543163,0.13556799261540584,0.060695218074905924,0.0012936221665639134,0.010518700439075445,0.004234705274985809,-0.11684984071458412,0.007520014559310645,0.021299994160273502
0.047472955654245766,-0.268082573106329,-0.028623399732707,9.635033625,-0.6456044583333332,-4.0615875416666665,-0.0021362833086976465,0.021064049997321678,0.07665328132169955,-0.028906179282543163,0.13556799261540584,0.060695218074905924,-0.00133648419060693,0.0023037103845628833,0.00471810549597053,-0.0392945451697257,0.0075204244077963535,0.025130895698396227
0.05026548245743669,-0.2722713633111154,-0.03769911184307752,9.7085835,-0.6537766666666667,-4.126965208333333,-0.0021362833086976465,0.021064049997321678,0.07665328132169955,-0.028906179282543163,0.13556799261540584,0.060695218074905924,0.001159946738195502,0.0019908230939108622,0.004784906611004755,-0.0598430181811589,0.02829212786971814,0.004245523214699681
0.04817108735504349,-0.27646015351590175,-0.047472955654245766,9.822994416666667,-0.7028099166666667,-4.151481833333333,-0.0021362833086976465,0.021064049997321678,0.07665328132169955,-0.028906179282543163,0.13556799261540584,0.060695218074905924,0.001069385920881231,-0.005349564381411063,0.0035864866562003665,0.36382702395505856,0.031057597272592136,0.11270392087835766
0.04537856055185257,-0.26529004630313807,-0.05515240436302082,9.880199875,-0.612915625,-4.200515083333333,-0.0021362833086976465,0.021064049997321678,0.07665328132169955,-0.028906179282543163,0.13556799261540584,0.060695218074905924,-0.0028865431008241764,-0.0007984264157925225,0.0010327868976736133,0.0016258185267481334,0.01224012120708673,-0.007555959475755391
0.05166174585903216,-0.2638937829015426,-0.057246799465414,9.872027666666666,-0.6292600416666666,-4.200515083333333,-0.0021362833086976465,0.021064049997321678,0.07665328132169955,-0.028906179282543163,0.13556799261540584,0.060695218074905924,0.0007521181026591122,-0.0042201418114133134,0.0034787152488060216,0.038501048922605946,-0.020199793653104512,0.008926439895298881
0.05026548245743669,-0.2548180707911721,-0.06422811647339133,9.790305583333332,-0.5802267916666666,-4.233203916666667,-0.0021362833086976465,0.021064049997321678,0.07665328132169955,-0.028906179282543163,0.13556799261540584,0.060695218074905924,-0.0020734204725430297,-0.001594969499234178,-0.000919197395658798,-0.006684305986318817,0.00024354964213934283,0.005011926446666984
0.05375614096142535,-0.25202554398798116,-0.06213372137099814,9.798477791666667,-0.5720545833333333,-4.257720541666666,-0.0021362833086976465,0.021064049997321678,0.07665328132169955,-0.028906179282543163,0.13556799261540584,0.060695218074905924,0.0006975182728116614,-0.0011277117979122111,-0.00011594179561568098,0.005923837535734869,-0.028560736533827284,0.009128178387996413
0.05235987755982988,-0.249931148885588,-0.06213372137099814,9.782133375,-0.5066769166666666,-4.290409374999999,-0.0021362833086976465,0.021064049997321678,0.07665328132169955,-0.028906179282543163,0.13556799261540584,0.060695218074905924,0.0005033673495703999,-0.000288014131932379,-0.000383748418643838,-0.023007017443388275,-0.012208573641406617,0.009077571035849857
0.05166174585903216,-0.24923301718479024,-0.0614355896702004,9.822994416666667,-0.4739880833333333,-4.323098208333334,-0.0021362833086976465,0.021064049997321678,0.07665328132169955,-0.028906179282543163,0.13556799261540584,0.060695218074905924,-0.00276168779111996,-0.00573369184526648,0.0010702459443833875,-0.0638230093060108,-0.03659570112375284,0.021438391511286303
0.057246799465414,-0.23806290997202653,-0.0635299847725936,9.945577541666665,-0.392266,-4.380303666666666,-0.0021362833086976465,0.021064049997321678,0.07665328132169955,-0.028906179282543163,0.13556799261540584,0.060695218074905924,0.003333486821186689,-0.002013986598173271,0.0021947435989526985,-0.02278134082887363,-0.06509358132252528,0.013417673198115055
0.05026548245743669,-0.2331759880664424,-0.06771877497737998,9.986438583333333,-0.2533384583333333,-4.4211647083333325,-0.0021362833086976465,0.021064049997321678,0.07665328132169955,-0.028906179282543163,0.13556799261540584,0.060695218074905924,0.0031602114368623913,-0.007422674705234074,0.0012378708943722738,-0.0270431772609856,-0.040375945244074264,0.021800888643400976
0.0439822971502571,-0.21851522234969004,-0.06981317007977318,10.035471833333334,-0.16344416666666667,-4.478370166666666,-0.0021362833086976465,0.021064049997321678,0.07665328132169955,-0.028906179282543163,0.13556799261540584,0.060695218074905924,-0.00017890760527880832,-0.007616428577351234,0.000632170281443695,-0.010465731454875896,0.029044020987752477,0.005652666595270463
0.04468042885105484,-0.20385445663293766,-0.07120943348136866,10.051816249999998,-0.21247741666666667,-4.502886791666667,-0.0021362833086976465,0.021064049997321678,0.07665328132169955,-0.028906179282543163,0.13556799261540584,0.060695218074905924,0.003150928286970215,-0.008755646964808048,0.005810777516222641,-0.0346488299178261,-0.01562294956061615,-0.0060003999069017456
0.03839724354387525,-0.18570303241219666,-0.08307767239493008,10.117193916666666,-0.17161637500000002,-4.502886791666667,-0.0021362833086976465,0.021064049997321678,0.07665328132169955,-0.028906179282543163,0.13556799261540584,0.060695218074905924,0.002915712627538881,-0.00925253797541539,0.001094710774870239,0.03492213262187118,0.021155731042095526,-0.013855284746654461
0.032812189937493394,-0.16755160819145562,-0.08517206749732328,10.043644041666665,-0.20430520833333332,-4.486542375,-0.0021362833086976465,0.021064049997321678,0.07665328132169955,-0.028906179282543163,0.13556799261540584,0.060695218074905924,0.0007400296538280622,-0.008415596058291272,0.00033117148894022956,-0.03022374988962424,-0.015296259454963422,-0.00510677872172031
0.0307177948351002,-0.15079644737231007,-0.08587019919812101,10.100849499999999,-0.16344416666666667,-4.486542375,-0.0021362833086976465,0.021064049997321678,0.07665328132169955,-0.028906179282543163,0.13556799261540584,0.060695218074905924,0.002485729387344484,-0.00805882025116872,0.0017035396394577333,0.022974651084145786,0.013448943795848009,0.011560359501504322
0.02583087292951608,-0.13473941825396224,-0.08936085770210968,10.051816249999998,-0.17978858333333333,-4.519231208333333,-0.0021362833086976465,0.021064049997321678,0.07665328132169955,-0.028906179282543163,0.13556799261540584,0.060695218074905924,-0.00143550067524719,-0.010544267430174325,-0.0002781350363382945,-0.02592121693949031,-0.023459902067876588,0.0161399039098227
0.028623399732707,-0.11309733552923257,-0.08866272600131193,10.100849499999999,-0.122583125,-4.56009225,-0.0021362833086976465,0.021064049997321678,0.07665328132169955,-0.028906179282543163,0.13556799261540584,0.060695218074905924,0.0024120492997682093,-0.008822781125642798,-0.0022381223624140193,0.09715882615409863,0.05416797796197198,-0.036479529331938175
0.024434609527920613,-0.09564404300928926,-0.08447393579652555,9.9047165,-0.220649625,-4.494714583333333,-0.0021362833086976465,0.021064049997321678,0.07665328132169955,-0.028906179282543163,0.13556799261540584,0.060695218074905924,-0.00194760789982847,-0.011261586075913906,-0.00042224226669377397,-0.0580039146414459,0.000878855853500804,-0.003311016904106553
0.027925268031909273,-0.07330382858376185,-0.08307767239493008,10.019127416666667,-0.21247741666666667,-4.494714583333333,-0.0021362833086976465,0.021064049997321678,0.07665328132169955,-0.028906179282543163,0.13556799261540584,0.060695218074905924,0.0003179963165850796,-0.011835184403989547,-0.006497354874256343,0.0933756146623314,0.02120322392182065,-0.039354232182290755
0.02722713633111154,-0.04956735075663895,-0.07051130178057091,9.831166624999998,-0.24516625,-4.4211647083333325,-0.0021362833086976465,0.021064049997321678,0.07665328132169955,-0.028906179282543163,0.13556799261540584,0.060695218074905924,-0.002063335544669929,-0.010249635193761767,-0.012299868565728032,-0.03287380867889548,-0.02420507573353154,0.010133625842887342
0.031415926535897934,-0.029321531433504733,-0.04537856055185257,9.896544291666666,-0.18796079166666665,-4.445681333333333,-0.0021362833086976465,0.021064049997321678,0.07665328132169955,-0.028906179282543163,0.13556799261540584,0.060695218074905924,-0.0012997324418882676,-0.01466865306393548,-0.008576251946980121,0.08418521927156095,0.053862766268130954,0.2709219252878889
0.03420845333908886,0.0013962634015954637,-0.029321531433504733,9.912888708333332,-0.24516625,-4.388475875,-0.0021362833086976465,0.021064049997321678,0.07665328132169955,-0.028906179282543163,0.13556799261540584,0.060695218074905924,0.0005976627330368683,-0.014804725303050756,-0.005990795400780813,-0.07745725665444395,-0.012789970583326506,-0.029287392005723688
0.032812189937493394,0.0307177948351002,-0.017453292519943295,10.068160666666666,-0.21247741666666667,-4.3312704166666665,-0.0021362833086976465,0.021064049997321678,0.07665328132169955,-0.028906179282543163,0.13556799261540584,0.060695218074905924,-0.0012315849716748306,-0.016353720825911695,-0.012022846876650542,0.01305832631836788,0.03991534218694561,-0.024507928012775126
0.03490658503988659,0.0635299847725936,0.006981317007977318,10.043644041666665,-0.2860272916666666,-4.2822371666666665,-0.0021362833086976465,0.021064049997321678,0.07665328132169955,-0.028906179282543163,0.13556799261540584,0.060695218074905924,-0.002827087302673309,-0.017825852770045142,-0.011116711085647811,-0.027515816947085853,0.0023257512539312875,0.029561951051312763
0.041189770347066175,0.0991347015132779,0.029321531433504733,10.100849499999999,-0.2860272916666666,-4.339442625,-0.0021362833086976465,0.021064049997321678,0.07665328132169955,-0.028906179282543163,0.13556799261540584,0.060695218074905924,-0.0010410139728024995,-0.019687365223244293,-0.0151045203070478,0.09119732699859145,0.0017368754291733396,-0.006195099047750884
0.04328416544945937,0.13823007675795088,0.059341194567807204,9.921060916666667,-0.2860272916666666,-4.323098208333334,-0.0021362833086976465,0.021064049997321678,0.07665328132169955,-0.028906179282543163,0.13556799261540584,0.060695218074905924,-0.0023873882407031456,-0.015844984593029087,-0.015656833646781686,-0.014529624574211664,0.00494208285866502,0.014941525786164523
0.04817108735504349,0.17034413499464657,0.09075712110370514,9.953749749999998,-0.29419949999999995,-4.347614833333333,-0.0021362833086976465,0.021064049997321678,0.07665328132169955,-0.028906179282543163,0.13556799261540584,0.060695218074905924,-0.003336993664925596,-0.013611912813611883,-0.016214776214565668,0.10424362100193563,-0.03252342868552276,0.0075344094333187625
0.05445427266222308,0.19687313962496036,0.1228711793404008,9.749444541666666,-0.22882183333333334,-4.355787041666666,-0.0021362833086976465,0.021064049997321678,0.07665328132169955,-0.028906179282543163,0.13556799261540584,0.060695218074905924,-0.0032826561607025096,-0.009587805048362572,-0.013236047466358482,0.014645960953947521,-0.00898584623283469,0.04057098086703968
0.0614355896702004,0.21642082724729686,0.1494001839707146,9.724927916666667,-0.21247741666666667,-4.429336916666666,-0.0021362833086976465,0.021064049997321678,0.07665328132169955,-0.028906179282543163,0.13556799261540584,0.060695218074905924,-0.0008795228002403538,-0.012258164506328877,-0.013736917156133574,0.08023789790314756,-0.03393451152536242,-0.003738257539384647
0.06283185307179587,0.2408554367752175,0.17732545200262387,9.569655958333334,-0.14709974999999997,-4.4129925,-0.0021362833086976465,0.021064049997321678,0.07665328132169955,-0.028906179282543163,0.13556799261540584,0.060695218074905924,-0.0010344533215960264,-0.0043616794216022785,-0.013765867724021523,0.014963062544204854,-0.05524115365102334,0.025238499951203232
0.06492624817418906,0.249931148885588,0.20455258833373544,9.545139333333333,-0.04086104166666667,-4.453853541666667,-0.0021362833086976465,0.021064049997321678,0.07665328132169955,-0.028906179282543163,0.13556799261540584,0.060695218074905924,-0.0019564059413823905,-0.009846240756293975,-0.01609057473725935,-0.0007070709173166681,-0.0034289918397741245,0.22912106409926894
0.06841690667817772,0.2701769682087222,0.2366666465704311,9.447072833333333,-0.06537766666666667,-4.429336916666666,-0.0021362833086976465,0.021064049997321678,0.07665328132169955,-0.028906179282543163,0.13556799261540584,0.060695218074905924,-0.0017291150219762553,-0.006166733108721107,-0.011545490007604176,-0.029504798800642305,-0.036312492991764776,0.02601826062944017
0.07260569688296412,0.28204520712228365,0.25970499269675623,9.5124505,0.0,-4.4701979583333324,-0.0021362833086976465,0.021064049997321678,0.07665328132169955,-0.028906179282543163,0.13556799261540584,0.060695218074905924,0.002162316133375904,-0.008215517709148721,-0.009311105897454245,-0.02129353716864477,-0.01618836136669139,-0.018696762808454285
0.06841690667817772,0.2988003679414292,0.278554548618295,9.561483749999999,0.024516625,-4.4211647083333325,-0.0021362833086976465,0.021064049997321678,0.07665328132169955,-0.028906179282543163,0.13556799261540584,0.060695218074905924,-0.002102452059026693,-0.009216535216008426,-0.008114428678031355,-0.04966266952366235,0.011853196875672654,0.006276330387765841
0.07190756518216637,0.31695179216217023,0.29461157773664276,9.667722458333333,-0.008172208333333333,-4.4211647083333325,-0.0021362833086976465,0.021064049997321678,0.07665328132169955,-0.028906179282543163,0.13556799261540584,0.060695218074905924,0.001759181602485904,-0.014143057350184125,-0.0029134813038358236,-0.03293121058092963,-0.004914498987234877,-0.009394431427065105
0.06841690667817772,0.34557519189487723,0.30019663134302466,9.741272333333333,-0.008172208333333333,-4.388475875,-0.0021362833086976465,0.021064049997321678,0.07665328132169955,-0.028906179282543163,0.13556799261540584,0.060695218074905924,-0.000816282136845311,-0.011691423482159879,-0.0029410527521437535,0.0038632013124431505,-0.02527787254833085,-0.017042523445528833
0.07051130178057091,0.36861353802120245,0.30647981665020424,9.741272333333333,0.032688833333333334,-4.339442625,-0.0021362833086976465,0.021064049997321678,0.07665328132169955,-0.028906179282543163,0.13556799261540584,0.060695218074905924,0.0034637809284489077,-0.010754227364026182,0.0038804267626392115,0.020470431183371253,-0.06202045174129098,-0.03264811291231364
0.0635299847725936,0.39025562074593206,0.2988003679414292,9.7085835,0.14709974999999997,-4.257720541666666,-0.0021362833086976465,0.021064049997321678,0.07665328132169955,-0.028906179282543163,0.13556799261540584,0.060695218074905924,0.005068163888777778,-0.006649954842391083,-0.0034836358228897747,0.08194573022477568,0.027991720763605107,-0.0325153473850268
0.05305800926062762,0.403520123061089,0.3057816849494065,9.553311541666666,0.08172208333333333,-4.175998458333333,-0.0021362833086976465,0.021064049997321678,0.07665328132169955,-0.028906179282543163,0.13556799261540584,0.060695218074905924,0.003233264354480838,-0.004386966588491598,0.0009773138903660585,0.049081778034648756,-0.004676465322127676,-0.016122645766237568
0.04677482395344803,0.4125958351714595,0.3036872898470133,9.46341725,0.08172208333333333,-4.126965208333333,-0.0021362833086976465,0.021064049997321678,0.07665328132169955,-0.028906179282543163,0.13556799261540584,0.060695218074905924,0.0016126661477977489,-0.00026055553201592945,-0.004208093459118092,0.1309297889177232,0.08129048229721877,-0.02425544663910255
0.04328416544945937,0.4132939668722573,0.3120648702565861,9.210078791666666,-0.08989429166666667,-4.0615875416666665,-0.0021362833086976465,0.021064049997321678,0.07665328132169955,-0.028906179282543163,0.13556799261540584,0.060695218074905924,-0.0011710566867665024,0.002919500767769208,-0.005081021583289969,-0.04390301339277223,0.016196055287189218,0.267554345631491
0.046076692252650306,0.40770891326587533,0.3218387140677544,9.103840083333333,-0.220649625,-4.053415333333333,-0.0021362833086976465,0.021064049997321678,0.07665328132169955,-0.028906179282543163,0.13556799261540584,0.060695218074905924,-3.478707262087314e-05,0.011478922205849295,-0.004979621639496306,0.056896105094761826,0.05250630999749097,-0.016643693611838525
0.046076692252650306,0.3853686988403479,0.3323106895797203,8.997601374999999,-0.3350605416666666,-4.004382083333333,-0.0021362833086976465,0.021064049997321678,0.07665328132169955,-0.028906179282543163,0.13556799261540584,0.060695218074905924,-0.002689136916167802,0.007150302774768766,0.0010154010860072406,-0.041370045366200224,0.03183733224773698,0.003576452991455378
0.050963614158234416,0.37070793312359557,0.3302162944773272,9.087495666666666,-0.40861041666666664,-3.9962098749999995,-0.0021362833086976465,0.021064049997321678,0.07665328132169955,-0.028906179282543163,0.13556799261540584,0.060695218074905924,-0.003869103243924418,0.008751184864845439,-0.001972379340688951,0.031845036254827076,0.08086011749036923,-0.02149779135218959
0.059341194567807204,0.35325464060365225,0.3344050846821135,9.030290208333332,-0.5802267916666666,-3.9390044166666667,-0.0021362833086976465,0.021064049997321678,0.07665328132169955,-0.028906179282543163,0.13556799261540584,0.060695218074905924,-0.005266700843242626,0.004754556362981392,0.0006193055034089927,-0.09073543888904508,0.006998590433659205,0.03146656014215486
0.06981317007977318,0.34348079679248406,0.3323106895797203,9.218250999999999,-0.6047434166666666,-3.9880376666666666,-0.0021362833086976465,0.021064049997321678,0.07665328132169955,-0.028906179282543163,0.13556799261540584,0.060695218074905924,-0.005325676705956734,0.002862618950425827,0.0008612697108189446,0.0069632844225010595,0.04376620576419163,-0.02174599818932204
0.08098327729253688,0.3378957431861022,0.3309144261781249,9.210078791666666,-0.7028099166666667,-3.930832208333333,-0.0021362833086976465,0.021064049997321678,0.07665328132169955,-0.028906179282543163,0.13556799261540584,0.060695218074905924,-0.0037589515386771094,0.0013477351880480197,0.0037204287894807083,-0.038007940230982314,-0.03381186850319026,0.018986981754100622
0.0879645943005142,0.33510321638291124,0.3239331091701475,9.291800875,-0.6456044583333332,-3.955348833333333,-0.0021362833086976465,0.021064049997321678,0.07665328132169955,-0.028906179282543163,0.13556799261540584,0.060695218074905924,-0.003448249146303013,3.869651949306055e-06,0.004322686098225354,0.051902372943701244,0.006977084088188703,-0.050449243482805314
0.09494591130849153,0.33510321638291124,0.314857397059777,9.193734375,-0.6701210833333332,-3.8409379166666664,-0.0021362833086976465,0.021064049997321678,0.07665328132169955,-0.028906179282543163,0.13556799261540584,0.060695218074905924,-0.004295955375270402,-0.0007157159806849835,0.0076592497442847475,-0.02986545463582723,-0.02940030345643166,-0.005533766873017948
0.10332349171806432,0.3364994797845067,0.29949849964222697,9.259112041666667,-0.6210878333333334,-3.8164212916666664,-0.0021362833086976465,0.021064049997321678,0.07665328132169955,-0.028906179282543163,0.13556799261540584,0.060695218074905924,-0.00246748460293664,0.004277174592271895,0.005243619705773874,0.09268083518560263,-0.0005633476233342405,-0.017833583120758233
0.10821041362364843,0.32812189937493397,0.289026524130261,9.079323458333333,-0.6292600416666666,-3.7673880416666665,-0.0021362833086976465,0.021064049997321678,0.07665328132169955,-0.028906179282543163,0.13556799261540584,0.060695218074905924,-0.0029584552636700654,0.006095344308086068,0.008714112993377134,-0.09081059572593655,-0.12093489311164736,0.22140831568762365
0.11379546723003027,0.31695179216217023,0.2715732316103177,9.005773583333333,-0.53936575,-3.726527,-0.0021362833086976465,0.021064049997321678,0.07665328132169955,-0.028906179282543163,0.13556799261540584,0.060695218074905924,0.0018639477189256977,0.005852415519490686,0.0068587162988895225,0.07632715956049671,0.01256655323251627,-0.0021373128788853587
0.11030480872604163,0.3050835532486088,0.25761059759436306,8.858673833333333,-0.5720545833333333,-3.7101825833333333,-0.0021362833086976465,0.021064049997321678,0.07665328132169955,-0.028906179282543163,0.13556799261540584,0.060695218074905924,-0.002445347901736742,0.01467512901268168,0.007912813541594324,-0.017918895824779235,0.00459281250041167,0.005509633818961679
0.11519173063162574,0.2757620218151041,0.24155356847601517,8.899534874999999,-0.5883989999999999,-3.7101825833333333,-0.0021362833086976465,0.021064049997321678,0.07665328132169955,-0.028906179282543163,0.13556799261540584,0.060695218074905924,0.0016221145023776952,0.012092458209517638,0.009724375654736186,0.07990952438005434,0.02969957489025128,-0.003359176786572814
0.11239920382843484,0.25132741228718347,0.22270401255447644,8.744262916666667,-0.6537766666666667,-3.693838166666666,-0.0021362833086976465,0.021064049997321678,0.07665328132169955,-0.028906179282543163,0.13556799261540584,0.060695218074905924,-0.000184394712956267,0.014901513485829956,0.006064761173971089,-0.059161218895135204,0.009507062258992146,0.0003272399445454719
0.11239920382843484,0.22130774915288098,0.21013764194011728,8.866846041666665,-0.6782932916666666,-3.6856659583333333,-0.0021362833086976465,0.021064049997321678,0.07665328132169955,-0.028906179282543163,0.13556799261540584,0.060695218074905924,0.00029901968033609066,0.014578204005079864,0.0050441930959945515,0.04242595846070437,0.0424454951347133,-0.025002146245806448
0.1117010721276371,0.19268434942017396,0.20036379812894903,8.785123958333333,-0.7681875833333334,-3.6284604999999996,-0.0021362833086976465,0.021064049997321678,0.07665328132169955,-0.028906179282543163,0.13556799261540584,0.060695218074905924,-0.0009642323237741235,0.01565888823952576,0.0047871698719057,-0.10888011507108332,0.009985722755542352,0.027646288468748934
0.11379546723003027,0.16126842288427606,0.19058995431778078,9.005773583333333,-0.7927042083333332,-3.67749375,-0.0021362833086976465,0.021064049997321678,0.07665328132169955,-0.028906179282543163,0.13556799261540584,0.060695218074905924,-0.003426254721985443,0.00845055588760167,0.005494821897582111,0.013497320236989288,0.010140177357334966,-0.03425245429384946
0.12077678423800758,0.1445132620651305,0.17941984710501704,8.981256958333333,-0.8172208333333333,-3.6039438749999997,-0.0021362833086976465,0.021064049997321678,0.07665328132169955,-0.028906179282543163,0.13556799261540584,0.060695218074905924,-0.0005997699379164817,0.012281078738294903,0.008807094576191178,-0.047874723052467635,-0.042692535236313944,-0.002017925094991881
0.12217304763960307,0.12007865253720987,0.16196655458507375,9.079323458333333,-0.73549875,-3.5957716666666664,-0.0021362833086976465,0.021064049997321678,0.07665328132169955,-0.028906179282543163,0.13556799261540584,0.060695218074905924,-0.0006086775521808904,0.008879421532841287,0.009835361713416091,0.02131879321121773,-0.04219661882580661,0.009747245440059473
0.1228711793404008,0.10192722831646883,0.1424188669627373,9.038462416666666,-0.6537766666666667,-3.6121160833333334,-0.0021362833086976465,0.021064049997321678,0.07665328132169955,-0.028906179282543163,0.13556799261540584,0.060695218074905924,0.0009488934897390322,0.010341175445398485,0.009409023149276356,-0.15085152755788497,-0.07473986606163632,0.1710232493603381
0.12077678423800758,0.08237954069413235,0.12356931104119852,9.054806833333332,-0.6456044583333332,-3.5957716666666664,-0.0021362833086976465,0.021064049997321678,0.07665328132169955,-0.028906179282543163,0.13556799261540584,0.060695218074905924,0.005481443989079072,0.003330945669442176,0.011483501527674902,-0.00751854112262537,-0.03716242131338892,-0.003088192288164408
0.11030480872604163,0.07539822368615504,0.10053096491487339,9.07115125,-0.5720545833333333,-3.587599458333333,-0.0021362833086976465,0.021064049997321678,0.07665328132169955,-0.028906179282543163,0.13556799261540584,0.060695218074905924,0.0003606336071713297,0.005738358895494761,0.013285602867836973,-0.019785137457143154,0.04920489696466215,0.016844433459103688
0.1096066770252439,0.06422811647339133,0.07400196028455958,9.112012291666666,-0.6701210833333332,-3.6202882916666663,-0.0021362833086976465,0.021064049997321678,0.07665328132169955,-0.028906179282543163,0.13556799261540584,0.060695218074905924,-0.001443467625432987,0.007442791732378966,0.008259866960743219,0.04157297538359065,0.021053242617664326,0.00044525871944882243
0.11239920382843484,0.048869219055841226,0.057246799465414,9.030290208333332,-0.7109821249999999,-3.6202882916666663,-0.0021362833086976465,0.021064049997321678,0.07665328132169955,-0.028906179282543163,0.13556799261540584,0.060695218074905924,-0.0009288339171015486,0.009992858513480534,0.010114404300099567,-0.01980030330328462,0.02153771787777365,-0.0042257610575021035
0.114493598930828,0.028623399732707,0.03700098014227979,9.07115125,-0.7518431666666666,-3.6121160833333334,-0.0021362833086976465,0.021064049997321678,0.07665328132169955,-0.028906179282543163,0.13556799261540584,0.060695218074905924,-0.0007705553818492784,0.00496709129499256,0.013952573461755869,-0.04871498902494539,0.005814190424361012,0.028234844555604977
0.11588986233242347,0.01884955592153876,0.009075712110370514,9.16921775,-0.7600153749999999,-3.6693215416666662,-0.0021362833086976465,0.021064049997321678,0.07665328132169955,-0.028906179282543163,0.13556799261540584,0.060695218074905924,-0.0018677475208512147,0.004407233586976539,0.007770290752536754,-0.007853089822866645,-0.03066771482573617,0.04840523707439258
0.11938052083641214,0.010471975511965976,-0.006283185307179587,9.185562166666665,-0.6946377083333333,-3.7673880416666665,-0.0021362833086976465,0.021064049997321678,0.07665328132169955,-0.028906179282543163,0.13556799261540584,0.060695218074905924,0.00011484927484565073,0.00148403186162547,0.007411565175045281,0.0002739873218420099,-0.034440539916719894,-0.009009226368191325
0.11938052083641214,0.006981317007977318,-0.020943951023931952,9.185562166666665,-0.6210878333333334,-3.751043625,-0.0021362833086976465,0.021064049997321678,0.07665328132169955,-0.028906179282543163,0.13556799261540584,0.060695218074905924,0.0013083631051748013,0.005121302898131984,0.005383704392909861,0.053549801351829615,-0.029997424993998927,-0.01312418395314357
0.1165879940332212,-0.003490658503988659,-0.032114058236695664,9.079323458333333,-0.5557101666666666,-3.726527,-0.0021362833086976465,0.021064049997321678,0.07665328132169955,-0.028906179282543163,0.13556799261540584,0.060695218074905924,0.0013471352297825243,0.006173897329849886,0.004592938300108115,-0.04489565873411169,-0.050127978459921174,-0.001281391617567709
0.11379546723003027,-0.0153588974175501,-0.041189770347066175,9.16921775,-0.4494714583333333,-3.726527,-0.0021362833086976465,0.021064049997321678,0.07665328132169955,-0.028906179282543163,0.13556799261540584,0.060695218074905924,0.003006733107041983,0.004959556602390964,0.0037461917943767188,-0.10332816833837588,-0.037473139753034845,0.09877214192620444
0.1075122819228507,-0.023736477827122883,-0.048869219055841226,9.087495666666666,-0.44129925,-3.702010375,-0.0021362833086976465,0.021064049997321678,0.07665328132169955,-0.028906179282543163,0.13556799261540584,0.060695218074905924,5.433840641970675e-05,-0.0008069034500447007,0.0046990785532661505,-0.07331458480096932,-0.01295189110734186,0.006687352851584018
0.1075122819228507,-0.02234021442552742,-0.05864306286700947,9.234595416666666,-0.40861041666666664,-3.718354791666666,-0.0021362833086976465,0.021064049997321678,0.07665328132169955,-0.028906179282543163,0.13556799261540584,0.060695218074905924,0.0010027299049255802,-0.0018708990711492207,0.0001607786187206766,3.0112657801643985e-05,0.04441680846386833,-0.005631239687802307
0.10611601852125524,-0.01884955592153876,-0.05864306286700947,9.234595416666666,-0.4903325,-3.7101825833333333,-0.0021362833086976465,0.021064049997321678,0.07665328132169955,-0.028906179282543163,0.13556799261540584,0.060695218074905924,-0.00012749389679818918,-0.0036879596039961224,0.0011728560882551314,-0.04062204521318538,-0.008518126504960408,0.002679056672641316
0.10611601852125524,-0.01117010721276371,-0.06073745796940267,9.316317499999998,-0.465815875,-3.718354791666666,-0.0021362833086976465,0.021064049997321678,0.07665328132169955,-0.028906179282543163,0.13556799261540584,0.060695218074905924,0.002022236419686786,-0.00043084460124385326,-0.0036612097625393796,0.06945505287904237,0.0320978445237009,-0.005386057487735101
0.10192722831646883,-0.01117010721276371,-0.05375614096142535,9.177389958333332,-0.5230213333333333,-3.7101825833333333,-0.0021362833086976465,0.021064049997321678,0.07665328132169955,-0.028906179282543163,0.13556799261540584,0.060695218074905924,0.0006440336043361106,-0.0015541992307299035,-0.004453127998835212,-0.06915266533057886,-0.0006755575949306401,0.015029305261968152
0.10053096491487339,-0.00767944870877505,-0.04468042885105484,9.316317499999998,-0.5148491249999999,-3.742871416666666,-0.0021362833086976465,0.021064049997321678,0.07665328132169955,-0.028906179282543163,0.13556799261540584,0.060695218074905924,-0.0010320795282340027,-0.007356431659755457,-0.01358371806768491,0.01665528908842316,0.05201146382317676,0.0032936369244875897
0.10262536001726656,0.006981317007977318,-0.017453292519943295,9.283628666666665,-0.612915625,-3.751043625,-0.0021362833086976465,0.021064049997321678,0.07665328132169955,-0.028906179282543163,0.13556799261540584,0.060695218074905924,-0.0025214070578928895,-0.0062373370494326445,-0.011372680157417117,-0.06503884047591739,0.04731360302821241,0.015458871509212673
0.1075122819228507,0.019547687622336492,0.005585053606381855,9.414383999999998,-0.7028099166666667,-3.7837324583333327,-0.0021362833086976465,0.021064049997321678,0.07665328132169955,-0.028906179282543163,0.13556799261540584,0.060695218074905924,-0.003800598233355472,-0.004490801135326294,-0.01194494489807935,0.06988058389735048,0.03861887825259698,-0.012479986966507432
0.11519173063162574,0.028623399732707,0.029321531433504733,9.275456458333332,-0.7763597916666666,-3.759215833333333,-0.0021362833086976465,0.021064049997321678,0.07665328132169955,-0.028906179282543163,0.13556799261540584,0.060695218074905924,-0.0054996355189113584,-0.008314804454011894,-0.010671915160747336,-0.052552786828140616,-0.01950653677559781,0.02851403382460218
0.12636183784438945,0.04537856055185257,0.05026548245743669,9.381695166666667,-0.73549875,-3.8164212916666664,-0.0021362833086976465,0.021064049997321678,0.07665328132169955,-0.028906179282543163,0.13556799261540584,0.060695218074905924,-0.003843117508231173,-0.00894389939268676,-0.009555687029759567,-0.10259461054038187,-0.038106347260800866,0.04656718308771702
0.1340412865531645,0.06422811647339133,0.06911503837897544,9.299973083333333,-0.661948875,-3.7919046666666665,-0.0021362833086976465,0.021064049997321678,0.07665328132169955,-0.028906179282543163,0.13556799261540584,0.060695218074905924,-0.0014560813764953144,-0.007169963123170633,-0.006811762380752474,-0.1054522238746827,-0.0897381207484701,0.04158979415508065
0.13683381335635544,0.07819075048934597,0.08307767239493008,9.5124505,-0.48216029166666663,-3.87362675,-0.0021362833086976465,0.021064049997321678,0.07665328132169955,-0.028906179282543163,0.13556799261540584,0.060695218074905924,-0.0014353537403350297,-0.014377486597156494,-0.011883867934309147,0.04586072625198917,-0.05758728193530488,0.009327491303663156
0.13962634015954636,0.10681415022205297,0.10681415022205297,9.422556208333333,-0.367749375,-3.8899711666666663,-0.0021362833086976465,0.021064049997321678,0.07665328132169955,-0.028906179282543163,0.13556799261540584,0.060695218074905924,-0.0008987779626095471,-0.014786805978292572,-0.013663765927555692,-0.06005307429307058,-0.04988706135584726,0.014049953084511515
0.14172073526193954,0.1361356816555577,0.1340412865531645,9.545139333333333,-0.269682875,-3.9144877916666663,-0.0021362833086976465,0.021064049997321678,0.07665328132169955,-0.028906179282543163,0.13556799261540584,0.060695218074905924,0.0032746837879622697,-0.01546996365385701,-0.00814214851420037,0.06276144474250663,-0.034205438990219245,-0.030149728858831267
0.13543754995475996,0.16755160819145562,0.15079644737231007,9.422556208333333,-0.20430520833333332,-3.8491101249999997,-0.0021362833086976465,0.021064049997321678,0.07665328132169955,-0.028906179282543163,0.13556799261540584,0.060695218074905924,0.004392193444969666,-0.012584448434713891,-0.007840989170865816,-0.02688937295167329,-0.09175192889225371,0.011204344716627658
0.12636183784438945,0.19268434942017396,0.16615534478986016,9.479761666666667,-0.024516625,-3.8654545416666664,-0.0021362833086976465,0.021064049997321678,0.07665328132169955,-0.028906179282543163,0.13556799261540584,0.060695218074905924,0.005830090457017279,-0.010590212161699777,-0.007218371464135084,0.05521165616732354,-0.006070035558726287,0.003666150253823414
0.114493598930828,0.21362830044410594,0.18081611050661253,9.373522958333332,-0.016344416666666667,-3.8654545416666664,-0.0021362833086976465,0.021064049997321678,0.07665328132169955,-0.028906179282543163,0.13556799261540584,0.060695218074905924,0.006926697714834034,-0.007494857397429461,-0.006912543275296281,-0.0018983309567713108,0.018228553541771504,0.01631562372070116
0.10122909661567112,0.228987197861656,0.19477874452256716,9.381695166666667,-0.057205458333333334,-3.8899711666666663,-0.0021362833086976465,0.021064049997321678,0.07665328132169955,-0.028906179282543163,0.13556799261540584,0.060695218074905924,0.005407139023238466,-0.0051185765652660645,-0.011766239428981057,0.10440174633379509,0.054799141819211736,-0.036579627888755774
0.09005898940290741,0.23876104167282428,0.21781709064889232,9.177389958333332,-0.17161637500000002,-3.8082490833333327,-0.0021362833086976465,0.021064049997321678,0.07665328132169955,-0.028906179282543163,0.13556799261540584,0.060695218074905924,0.004219878090325062,-0.001956086763183157,-0.009175568693243713,-0.018151601218533972,0.03796843684727921,-0.01611982541808253
0.08168140899333462,0.24294983187761068,0.2366666465704311,9.218250999999999,-0.2533384583333333,-3.7673880416666665,-0.0021362833086976465,0.021064049997321678,0.07665328132169955,-0.028906179282543163,0.13556799261540584,0.060695218074905924,0.0013512029978907556,-0.0035988484647393863,-0.012102407364655563,0.03083153920837588,0.017113957972086792,-0.02006071468312979
0.07888888219014369,0.249931148885588,0.260403124397554,9.161045541666667,-0.29419949999999995,-3.718354791666666,-0.0021362833086976465,0.021064049997321678,0.07665328132169955,-0.028906179282543163,0.13556799261540584,0.060695218074905924,0.0008228914998252678,-0.0024778502983342937,-0.014295763281452304,-0.17828663870500805,0.053566085603542674,-0.007584756095558013
0.07749261878854824,0.25621433419276757,0.289026524130261,9.210078791666666,-0.3759215833333333,-3.6529771249999996,-0.0021362833086976465,0.021064049997321678,0.07665328132169955,-0.028906179282543163,0.13556799261540584,0.060695218074905924,0.00016306136119183855,-0.0035228606398820914,-0.009968408976963768,-0.001981101286810929,0.05690769964326366,-0.023798335632325526
0.0767944870877505,0.2631956512007449,0.30927234345339516,9.218250999999999,-0.4985047083333333,-3.5957716666666664,-0.0021362833086976465,0.021064049997321678,0.07665328132169955,-0.028906179282543163,0.13556799261540584,0.060695218074905924,0.0009845999839187597,-0.0012794972406902584,-0.012516486894623388,0.0020071557260105633,0.01964549432223085,-0.007147378085211227
0.0747000919853573,0.2659881780039358,0.3344050846821135,9.218250999999999,-0.5475379583333333,-3.571255041666667,-0.0021362833086976465,0.021064049997321678,0.07665328132169955,-0.028906179282543163,0.13556799261540584,0.060695218074905924,0.0015570254990879052,-0.006518033005170319,-0.012967276045302784,0.022471676325337378,0.055734535182848766,0.013384978546051815
0.07190756518216637,0.278554548618295,0.36023595761162963,9.177389958333332,-0.6701210833333332,-3.587599458333333,-0.0021362833086976465,0.021064049997321678,0.07665328132169955,-0.028906179282543163,0.13556799261540584,0.060695218074905924,-0.003550296244545743,-0.007151054019041655,-0.012862800571239204,0.022418616645232255,0.043098799588253196,-0.002791350214244639
0.07888888219014369,0.2932153143350474,0.3853686988403479,9.136528916666666,-0.7681875833333334,-3.571255041666667,-0.0021362833086976465,0.021064049997321678,0.07665328132169955,-0.028906179282543163,0.13556799261540584,0.060695218074905924,-0.0007793572878008312,-0.0035532514206706397,-0.009660676169088412,0.046900084124429885,0.02620148681289886,-0.006543973803651356
0.08098327729253688,0.30019663134302466,0.40491638646268446,9.046634625,-0.83356525,-3.546738416666667,-0.0021362833086976465,0.021064049997321678,0.07665328132169955,-0.028906179282543163,0.13556799261540584,0.060695218074905924,-0.007028528027535427,-7.38562956280749e-05,-0.006943593723556576,0.06324518741738117,0.0298531525302763,-0.03100472214853645
0.09494591130849153,0.30019663134302466,0.41887902047863906,8.9240515,-0.9071151249999999,-3.4731885416666666,-0.0021362833086976465,0.021064049997321678,0.07665328132169955,-0.028906179282543163,0.13556799261540584,0.060695218074905924,-0.0035189045215624336,0.0024823025922144737,-0.0004526435871769741,0.0017326045258234985,0.013395474099540977,-0.002543852083320316
0.10192722831646883,0.2953097094374406,0.41957715217943675,8.9240515,-0.9479761666666666,-3.4568441249999995,-0.0021362833086976465,0.021064049997321678,0.07665328132169955,-0.028906179282543163,0.13556799261540584,0.060695218074905924,-0.005983989328985545,0.003233255262876723,-0.0019298752018930595,-0.03527708432247964,0.04187463986766272,-0.014630017909190182
0.11379546723003027,0.289026524130261,0.4237659423842232,8.997601374999999,-1.0460426666666667,-3.415983083333333,-0.0021362833086976465,0.021064049997321678,0.07665328132169955,-0.028906179282543163,0.13556799261540584,0.060695218074905924,-0.006542105798461563,0.0014008414372545617,0.0010583238359908969,-0.27267457588109634,-0.017978680155779678,0.010740621625959052
0.1270599695451872,0.2869321290278678,0.42167154728183,9.234595416666666,-0.9724927916666666,-3.4650163333333333,-0.0021362833086976465,0.021064049997321678,0.07665328132169955,-0.028906179282543163,0.13556799261540584,0.060695218074905924,-0.004544953199740884,-0.00135468438217262,-0.0013008851905406615,-0.006322155101851487,-0.05270189293964282,0.034492288891622876
0.13543754995475996,0.2897246558310587,0.4237659423842232,9.250939833333334,-0.8825985,-3.5222217916666665,-0.0021362833086976465,0.021064049997321678,0.07665328132169955,-0.028906179282543163,0.13556799261540584,0.060695218074905924,-0.0008666031382617118,-0.0016178768656366458,0.0033368012346433247,-0.034859379461316314,-0.10173342024754677,0.03440390183361041
0.13753194505715316,0.29251718263424964,0.41748275707704363,9.324489708333333,-0.6946377083333333,-3.5794272499999997,-0.0021362833086976465,0.021064049997321678,0.07665328132169955,-0.028906179282543163,0.13556799261540584,0.060695218074905924,0.001992615571920499,0.003940888476170625,0.0033033872989842498,0.14913145300092714,-0.027799370468481466,-0.03536366724454087
0.13334315485236678,0.2848377339254746,0.41050144006906625,9.030290208333332,-0.6537766666666667,-3.4977051666666665,-0.0021362833086976465,0.021064049997321678,0.07665328132169955,-0.028906179282543163,0.13556799261540584,0.060695218074905924,0.0026392561473700528,0.008519166758656653,0.009708817613323073,0.010150568430174596,-0.05208150394092315,0.025798549342686352
0.12845623294678266,0.268082573106329,0.39165188414752755,9.013945791666666,-0.563882375,-3.538566208333333,-0.0021362833086976465,0.021064049997321678,0.07665328132169955,-0.028906179282543163,0.13556799261540584,0.060695218074905924,0.0035727696590789125,0.007497958507834782,0.013671348422705492,0.12034500559937042,-0.051028787339046894,-0.028009340785705297
0.12077678423800758,0.2527236756887789,0.364424747816416,8.77695175,-0.4739880833333333,-3.4731885416666666,-0.0021362833086976465,0.021064049997321678,0.07665328132169955,-0.028906179282543163,0.13556799261540584,0.060695218074905924,0.004009495685075765,0.012503805697815052,0.012787386235383938,0.0018283500439380547,-0.04661261675382823,0.00815950376698934
0.11309733552923257,0.22759093446006054,0.3385938748868999,8.77695175,-0.392266,-3.4813607499999994,-0.0021362833086976465,0.021064049997321678,0.07665328132169955,-0.028906179282543163,0.13556799261540584,0.060695218074905924,0.006645119039588585,0.00995541445895362,0.012096248793138238,0.12816170394160414,0.0033424708824198617,-0.02907860647993801
0.09983283321407566,0.20804324683772407,0.3141592653589793,8.523613291666665,-0.40861041666666664,-3.415983083333333,-0.0021362833086976465,0.021064049997321678,0.07665328132169955,-0.028906179282543163,0.13556799261540584,0.060695218074905924,0.005631996148513746,0.011362731422234958,0.012500508205099252,-0.018845562305984276,0.028493604578013632,0.0032338713212949734
0.08866272600131193,0.1850049007113989,0.289026524130261,8.564474333333333,-0.4739880833333333,-3.415983083333333,-0.0021362833086976465,0.021064049997321678,0.07665328132169955,-0.028906179282543163,0.13556799261540584,0.060695218074905924,0.0025185863490813105,0.01612502454217681,0.014155104614120752,0.07859100699376201,0.13956106804941593,-0.046495326871782997
0.08377580409572781,0.15289084247470325,0.2611012560983517,8.409202375,-0.7600153749999999,-3.317916583333333,-0.0021362833086976465,0.021064049997321678,0.07665328132169955,-0.028906179282543163,0.13556799261540584,0.060695218074905924,0.001651658983885986,0.014283088533921228,0.01002003362094232,-0.2432377473012773,0.15293085736125983,-0.09629804197305278
0.08028514559173915,0.12566370614359174,0.2408554367752175,8.556302125,-0.9724927916666666,-3.260711125,-0.0021362833086976465,0.021064049997321678,0.07665328132169955,-0.028906179282543163,0.13556799261540584,0.060695218074905924,-0.0011369312802961484,0.009945394788785625,0.00982903186032938,0.004523930815723794,0.17318411656595634,-0.06372523225544434
0.08237954069413235,0.1054178868204575,0.22130774915288098,8.548129916666667,-1.32389775,-3.1299557916666663,-0.0021362833086976465,0.021064049997321678,0.07665328132169955,-0.028906179282543163,0.13556799261540584,0.060695218074905924,-0.005619514265001507,0.00914620894107641,0.007536978491237656,-0.1386777560943865,0.09595352094616524,-0.010881748332199312
0.09354964790689606,0.08726646259971647,0.2059488517353309,8.825985,-1.5200307499999999,-3.1054391666666663,-0.0021362833086976465,0.021064049997321678,0.07665328132169955,-0.028906179282543163,0.13556799261540584,0.060695218074905924,-0.007048105405360342,0.004797039713009687,0.0038663153147197476,-0.03246708675478571,0.0836912881043667,-0.011279671601600672
0.1075122819228507,0.07749261878854824,0.1982694030265558,8.891362666666666,-1.6916471249999998,-3.0809225416666663,-0.0021362833086976465,0.021064049997321678,0.07665328132169955,-0.028906179282543163,0.13556799261540584,0.060695218074905924,-0.00801599619887924,0.001981378331227163,0.002840820235201247,-0.08573278800193118,0.0266719283798172,0.0051642968739579334
0.12426744274199628,0.07330382858376185,0.19268434942017396,9.062979041666667,-1.7488525833333333,-3.0890947499999997,-0.0021362833086976465,0.021064049997321678,0.07665328132169955,-0.028906179282543163,0.13556799261540584,0.060695218074905924,-0.007235725130499959,-0.002005541743198597,0.0020791949286086304,0.020695868793126383,-0.05132367569021346,-0.011192765000329934
0.13823007675795088,0.07749261878854824,0.1884955592153876,9.022118,-1.6507860833333332,-3.0645781249999997,-0.0021362833086976465,0.021064049997321678,0.07665328132169955,-0.028906179282543163,0.13556799261540584,0.060695218074905924,-0.0047085355859613764,0.0008156474126708781,0.004851066521950533,-0.04069015487728845,-0.07962689203620232,0.017369357406081497
0.14730578886832138,0.07609635538695278,0.17872171540421936,9.103840083333333,-1.495514125,-3.0972669583333334,-0.0021362833086976465,0.021064049997321678,0.07665328132169955,-0.028906179282543163,0.13556799261540584,0.060695218074905924,-0.0044108909012380735,0.001962117112862819,0.0049723725528437335,0.09441063787698717,-0.034562958145635585,0.02973821163678324
0.15638150097869194,0.07190756518216637,0.1689478715930511,8.915879291666666,-1.4301364583333334,-3.1544724166666662,-0.0021362833086976465,0.021064049997321678,0.07665328132169955,-0.028906179282543163,0.13556799261540584,0.060695218074905924,-0.0020528764985580246,0.002361315162491007,0.009461304971973108,-0.01604670539959244,-0.08326569247960774,0.05805252321444869
0.1605702911834783,0.06702064327658225,0.15009831567151233,8.948568125,-1.2666922916666667,-3.268883333333333,-0.0021362833086976465,0.021064049997321678,0.07665328132169955,-0.028906179282543163,0.13556799261540584,0.060695218074905924,6.726124082221299e-05,0.000972181776652345,0.012549577969091757,0.06584563848748513,-0.04622472643545723,0.012904234619139546
0.1605702911834783,0.06562437987498679,0.124965574442794,8.817812791666666,-1.1767979999999998,-3.293399958333333,-0.0021362833086976465,0.021064049997321678,0.07665328132169955,-0.028906179282543163,0.13556799261540584,0.060695218074905924,-0.0025709105333674826,0.006681858118360503,0.015072295572819217,0.024900291756166627,-0.08234016200113728,0.05379015933094274
0.16545721308906244,0.05166174585903216,0.09494591130849153,8.768779541666666,-1.0133538333333332,-3.3996386666666667,-0.0021362833086976465,0.021064049997321678,0.07665328132169955,-0.028906179282543163,0.13556799261540584,0.060695218074905924,0.002405174643970768,0.007101220027517121,0.019409872715638345,-0.16085491038322033,-0.020413158823067767,-0.08704046401889623
0.1605702911834783,0.03839724354387525,0.05515240436302082,8.687057458333333,-0.809048625,-3.4650163333333333,-0.0021362833086976465,0.021064049997321678,0.07665328132169955,-0.028906179282543163,0.13556799261540584,0.060695218074905924,0.004870615059418757,0.010029990462653592,0.015689330723283545,-0.015907965728614873,-0.07666222937555375,0.02839217163165439
0.15079644737231007,0.01815142422074103,0.024434609527920613,8.719746291666667,-0.6537766666666667,-3.5222217916666665,-0.0021362833086976465,0.021064049997321678,0.07665328132169955,-0.028906179282543163,0.13556799261540584,0.060695218074905924,0.0047802420479232345,0.0070094107696457774,0.021692090268267974,-0.032330237781788417,-0.018479983312343556,0.015584958773095013
0.14172073526193954,0.0041887902047863905,-0.01884955592153876,8.785123958333333,-0.612915625,-3.5549106249999998,-0.0021362833086976465,0.021064049997321678,0.07665328132169955,-0.028906179282543163,0.13556799261540584,0.060695218074905924,0.009954740266032866,0.010353966793335606,0.01833593437628259,-0.0038873146376839232,0.019094078175858703,-0.009248649224252245
0.12147491593880534,-0.016755160819145562,-0.05585053606381855,8.793296166666666,-0.6456044583333332,-3.538566208333333,-0.0021362833086976465,0.021064049997321678,0.07665328132169955,-0.028906179282543163,0.13556799261540584,0.060695218074905924,0.00671238634438493,0.008746053564281767,0.018019601367031502,-0.012203498885474142,0.036507555088290775,-0.030258969243052946
0.10821041362364843,-0.033510321638291124,-0.09215338450530061,8.817812791666666,-0.7109821249999999,-3.4813607499999994,-0.0021362833086976465,0.021064049997321678,0.07665328132169955,-0.028906179282543163,0.13556799261540584,0.060695218074905924,0.007761827129607169,0.013214298052882028,0.015068460853169787,0.00026412058755424615,0.008816618032568693,-0.04680334097942387
0.09285151620609833,-0.060039326268604934,-0.12217304763960307,8.817812791666666,-0.7191543333333333,-3.391466458333333,-0.0021362833086976465,0.021064049997321678,0.07665328132169955,-0.028906179282543163,0.13556799261540584,0.060695218074905924,0.009654822234895822,0.013083407272337031,0.016699205767242715,-0.06556392329874987,-0.006477454900214932,-0.023219831810822968
0.07330382858376185,-0.08656833089891874,-0.1556833692778942,8.948568125,-0.6946377083333333,-3.3506054166666663,-0.0021362833086976465,0.021064049997321678,0.07665328132169955,-0.028906179282543163,0.13556799261540584,0.060695218074905924,0.013306248279246537,0.008679672002877031,0.011307365997281528,-0.09832042689248284,0.05964940494618398,-0.0033496742967360437
0.04677482395344803,-0.10402162341886204,-0.1780235837034216,9.144701125,-0.8008764166666666,-3.3506054166666663,-0.0021362833086976465,0.021064049997321678,0.07665328132169955,-0.028906179282543163,0.13556799261540584,0.060695218074905924,0.007099885850582678,-0.0009428225740504506,0.013134127100176533,-0.07366141254008474,0.048211872603855795,-0.01988703835664063
0.032812189937493394,-0.10192722831646883,-0.20455258833373544,9.291800875,-0.8825985,-3.317916583333333,-0.0021362833086976465,0.021064049997321678,0.07665328132169955,-0.028906179282543163,0.13556799261540584,0.060695218074905924,0.0017781879387182885,-0.002790934034610253,0.0115643030895818,-0.26009721984023354,0.162225349065164,-0.13755657706083887
0.029321531433504733,-0.09564404300928926,-0.22759093446006054,9.357178541666666,-0.9970094166666666,-3.317916583333333,-0.0021362833086976465,0.021064049997321678,0.07665328132169955,-0.028906179282543163,0.13556799261540584,0.060695218074905924,-0.0012359660518028298,-0.007448377670850375,0.0106889236310211,-0.08956955859850292,0.06179648403108027,0.012966994225750783
0.031415926535897934,-0.08098327729253688,-0.24923301718479024,9.536967125,-1.103248125,-3.3506054166666663,-0.0021362833086976465,0.021064049997321678,0.07665328132169955,-0.028906179282543163,0.13556799261540584,0.060695218074905924,0.004100118842711516,0.0012116054194944005,0.00449137208777138,0.2292690316396456,0.02102069424537533,-0.03564741879795353
0.023038346126325153,-0.08307767239493008,-0.2583087292951608,9.079323458333333,-1.12776475,-3.2852277500000002,-0.0021362833086976465,0.021064049997321678,0.07665328132169955,-0.028906179282543163,0.13556799261540584,0.060695218074905924,0.005058307997582404,0.0059205902318436995,0.0032640176164577517,0.14315810957297156,-0.13822762258731516,0.02153469573904213
0.013264502315156905,-0.09494591130849153,-0.2645919146023404,8.793296166666666,-0.83356525,-3.334261,-0.0021362833086976465,0.021064049997321678,0.07665328132169955,-0.028906179282543163,0.13556799261540584,0.060695218074905924,0.004175392440839858,0.002248576668766375,-0.013711318717847835,0.08564180822246889,-0.052903233623676826,0.03335390433956123
0.004886921905584123,-0.09983283321407566,-0.23736477827122882,8.621679791666667,-0.7109821249999999,-3.4078108749999996,-0.0021362833086976465,0.021064049997321678,0.07665328132169955,-0.028906179282543163,0.13556799261540584,0.060695218074905924,0.0008494325310570488,0.0012564820194502942,-0.009313772335718225,-0.13482578607243118,0.13913259606272826,0.06611111580289714
0.0027925268031909274,-0.10192722831646883,-0.21851522234969004,8.891362666666666,-0.9724927916666666,-3.546738416666667,-0.0021362833086976465,0.021064049997321678,0.07665328132169955,-0.028906179282543163,0.13556799261540584,0.060695218074905924,-0.002688235623174891,0.003433111460319804,0.000418392703952394,0.07790852242109882,0.17529905897530437,-0.0322285879793993
0.008377580409572781,-0.10890854532444616,-0.2192133540504878,8.736090708333332,-1.3075533333333333,-3.489532958333333,-0.0021362833086976465,0.021064049997321678,0.07665328132169955,-0.028906179282543163,0.13556799261540584,0.060695218074905924,-0.00016317660552354272,0.004108929219731873,0.010030256950692934,0.08566975330989864,-0.21266449673028115,-0.036345380210785296
0.009075712110370514,-0.11728612573401893,-0.239459173373622,8.564474333333333,-0.8662540833333333,-3.4241552916666667,-0.0021362833086976465,0.021064049997321678,0.07665328132169955,-0.028906179282543163,0.13556799261540584,0.060695218074905924,-0.0033100108876324436,0.005428325324641308,-0.013206194635890744,0.05665124348745979,-0.1555333395317648,-0.03222972782654643
0.0153588974175501,-0.12845623294678266,-0.21293016874330817,8.450063416666666,-0.53936575,-3.366949833333333,-0.0021362833086976465,0.021064049997321678,0.07665328132169955,-0.028906179282543163,0.13556799261540584,0.060695218074905924,0.005480066082056265,-0.0012306696791064143,-0.009355480653648936,-0.29071869389279525,0.011830231606386368,0.0856468730593735
0.0041887902047863905,-0.12566370614359174,-0.19408061282176942,9.030290208333332,-0.5475379583333333,-3.546738416666667,-0.0021362833086976465,0.021064049997321678,0.07665328132169955,-0.028906179282543163,0.13556799261540584,0.060695218074905924,0.008938467944785844,-0.007918120642253031,-0.001893602051464737,-0.008579461035930488,0.12184840282752456,0.00022277381771455522
-0.013264502315156905,-0.1096066770252439,-0.19058995431778078,9.046634625,-0.7763597916666666,-3.5549106249999998,-0.0021362833086976465,0.021064049997321678,0.07665328132169955,-0.028906179282543163,0.13556799261540584,0.060695218074905924,-0.0026675952239142435,-0.00994546470003792,-0.009940578146999692,0.01189780613166385,-0.01288711987374119,-0.08119959192753502
-0.008377580409572781,-0.09005898940290741,-0.17034413499464657,9.022118,-0.73549875,-3.3996386666666667,-0.0021362833086976465,0.021064049997321678,0.07665328132169955,-0.028906179282543163,0.13556799261540584,0.060695218074905924,-0.005093802049976819,-0.008619026639337005,-0.0140099100801786,0.05308174908025259,0.04330442893417304,-0.0889221134114709
0.0020943951023931952,-0.07260569688296412,-0.1424188669627373,8.915879291666666,-0.809048625,-3.2280222916666665,-0.0021362833086976465,0.021064049997321678,0.07665328132169955,-0.028906179282543163,0.13556799261540584,0.060695218074905924,0.0017247907239209236,-0.006582701870356814,-0.004560063740431312,-0.19625018174449127,-0.05888010886021682,0.06263353688346854
-0.0013962634015954637,-0.059341194567807204,-0.13334315485236678,9.308145291666667,-0.6782932916666666,-3.358777625,-0.0021362833086976465,0.021064049997321678,0.07665328132169955,-0.028906179282543163,0.13556799261540584,0.060695218074905924,0.0036226554155990207,-0.012998426258640223,-0.0050961276136184,-0.07361822550936448,-0.07534103251442578,0.058911305393392094
-0.008377580409572781,-0.033510321638291124,-0.1228711793404008,9.455245041666666,-0.5148491249999999,-3.4813607499999994,-0.0021362833086976465,0.021064049997321678,0.07665328132169955,-0.028906179282543163,0.13556799261540584,0.060695218074905924,0.005104246732464363,-0.016018376067801317,-0.012114339502152469,0.00029702777178424426,0.0018722937189813963,-0.01390039128736792
-0.01884955592153876,-0.0013962634015954637,-0.0991347015132779,9.455245041666666,-0.5066769166666666,-3.4568441249999995,-0.0021362833086976465,0.021064049997321678,0.07665328132169955,-0.028906179282543163,0.13556799261540584,0.060695218074905924,0.002851424110000996,-0.013439424343831136,-0.006394438136072807,0.07795426690962375,0.03824378466937855,-0.08280312130200276
-0.024434609527920613,0.025132741228718346,-0.08656833089891874,9.299973083333333,-0.5720545833333333,-3.293399958333333,-0.0021362833086976465,0.021064049997321678,0.07665328132169955,-0.028906179282543163,0.13556799261540584,0.060695218074905924,0.003922487701441146,-0.006604313070893621,-0.013478352958879114,-0.044472882440357214,-0.035830293737988426,0.07713511365789509
-0.032114058236695664,0.03839724354387525,-0.059341194567807204,9.389867375,-0.4903325,-3.4486719166666666,-0.0021362833086976465,0.021064049997321678,0.07665328132169955,-0.028906179282543163,0.13556799261540584,0.060695218074905924,0.002818868369780361,-0.016910751110719303,-0.01748893882523562,-0.06861991382410508,0.05783326741417489,0.0899101073247032
