angular_velocity_x,angular_velocity_y,angular_velocity_z,linear_acceleration_x,linear_acceleration_y,linear_acceleration_z,fake_gyro_bias_x,fake_gyro_bias_y,fake_gyro_bias_z,fake_acc_bias_x,fake_acc_bias_y,fake_acc_bias_z,fake_gyro_noise_x,gyro_noise_y,gyro_noise_z,fake_acc_noise_x,fake_acc_noise_y,fake_acc_noise_z
-0.014660765716752367,0.019547687622336492,0.09285151620609833,9.7085835,-0.17161637500000002,-2.778550833333333,-0.0022852273309218775,0.02491002979379149,0.0816240698472582,-0.022406108790600936,0.11977515432983088,0.08000289898421559,0.0,0.0,0.0,0.0,0.0,0.0
-0.009075712110370514,0.041189770347066175,0.08307767239493008,9.626861416666666,-0.35957716666666667,-2.6477955,-0.0022852273309218775,0.02491002979379149,0.0816240698472582,-0.022406108790600936,0.11977515432983088,0.08000289898421559,0.0,0.0,0.0,0.0,0.0,0.0
0.0013962634015954637,0.02024581932313422,0.08517206749732328,9.177389958333332,-0.3350605416666666,-2.5252123749999997,-0.0022852273309218775,0.02491002979379149,0.0816240698472582,-0.022406108790600936,0.11977515432983088,0.08000289898421559,0.0,0.0,0.0,0.0,0.0,0.0
0.009773843811168246,0.016755160819145562,0.08028514559173915,9.389867375,-0.10623870833333333,-2.7703786249999998,-0.0022852273309218775,0.02491002979379149,0.0816240698472582,-0.022406108790600936,0.11977515432983088,0.08000289898421559,0.0,0.0,0.0,0.0,0.0,0.0
0.009075712110370514,0.0153588974175501,0.07888888219014369,9.332661916666666,-0.008172208333333333,-2.5905900416666663,-0.0022852273309218775,0.02491002979379149,0.0816240698472582,-0.022406108790600936,0.11977515432983088,0.08000289898421559,0.0,0.0,0.0,0.0,0.0,0.0
-0.0006981317007977319,0.023038346126325153,0.07539822368615504,9.651378041666666,0.10623870833333333,-2.9011339583333333,-0.0022852273309218775,0.02491002979379149,0.0816240698472582,-0.022406108790600936,0.11977515432983088,0.08000289898421559,0.0,0.0,0.0,0.0,0.0,0.0
-0.005585053606381855,0.039793506945470715,0.07330382858376185,9.398039583333333,0.196133,-2.6477955,-0.0022852273309218775,0.02491002979379149,0.0816240698472582,-0.022406108790600936,0.11977515432983088,0.08000289898421559,0.0,0.0,0.0,0.0,0.0,0.0
-0.011868238913561441,0.023736477827122883,0.08237954069413235,9.250939833333334,0.08989429166666667,-2.680484333333333,-0.0022852273309218775,0.02491002979379149,0.0816240698472582,-0.022406108790600936,0.11977515432983088,0.08000289898421559,0.0,0.0,0.0,0.0,0.0,0.0
-0.013962634015954637,0.019547687622336492,0.08866272600131193,9.389867375,-0.0980665,-2.6151066666666667,-0.0022852273309218775,0.02491002979379149,0.0816240698472582,-0.022406108790600936,0.11977515432983088,0.08000289898421559,0.0,0.0,0.0,0.0,0.0,0.0
-0.011868238913561441,0.025132741228718346,0.0942477796076938,9.684066875,-0.416782625,-2.8684451249999996,-0.0022852273309218775,0.02491002979379149,0.0816240698472582,-0.022406108790600936,0.11977515432983088,0.08000289898421559,0.0,0.0,0.0,0.0,0.0,0.0
-0.004886921905584123,0.03839724354387525,0.08377580409572781,9.185562166666665,-0.392266,-2.5006957499999998,-0.0022852273309218775,0.02491002979379149,0.0816240698472582,-0.022406108790600936,0.11977515432983088,0.08000289898421559,0.0,0.0,0.0,0.0,0.0,0.0
0.012566370614359173,0.0,0.09634217471008698,9.193734375,-0.21247741666666667,-2.5905900416666663,-0.0022852273309218775,0.02491002979379149,0.0816240698472582,-0.022406108790600936,0.11977515432983088,0.08000289898421559,0.0,0.0,0.0,0.0,0.0,0.0
0.0153588974175501,0.024434609527920613,0.08447393579652555,9.471589458333332,-0.032688833333333334,-2.6641399166666666,-0.0022852273309218775,0.02491002979379149,0.0816240698472582,-0.022406108790600936,0.11977515432983088,0.08000289898421559,0.0,0.0,0.0,0.0,0.0,0.0
0.0020943951023931952,0.017453292519943295,0.08028514559173915,9.357178541666666,0.17978858333333333,-2.6641399166666666,-0.0022852273309218775,0.02491002979379149,0.0816240698472582,-0.022406108790600936,0.11977515432983088,0.08000289898421559,0.0,0.0,0.0,0.0,0.0,0.0
-0.009075712110370514,0.030019663134302467,0.07190756518216637,9.749444541666666,0.122583125,-2.982856041666666,-0.0022852273309218775,0.02491002979379149,0.0816240698472582,-0.022406108790600936,0.11977515432983088,0.08000289898421559,0.0,0.0,0.0,0.0,0.0,0.0
-0.011868238913561441,0.032114058236695664,0.07958701389094143,9.242767624999999,0.06537766666666667,-2.549729,-0.0022852273309218775,0.02491002979379149,0.0816240698472582,-0.022406108790600936,0.11977515432983088,0.08000289898421559,0.0,0.0,0.0,0.0,0.0,0.0
-0.013962634015954637,0.02583087292951608,0.08866272600131193,9.46341725,-0.032688833333333334,-2.7867230416666664,-0.0022852273309218775,0.02491002979379149,0.0816240698472582,-0.022406108790600936,0.11977515432983088,0.08000289898421559,0.0,0.0,0.0,0.0,0.0,0.0
-0.013264502315156905,0.029321531433504733,0.08656833089891874,9.455245041666666,-0.22882183333333334,-2.549729,-0.0022852273309218775,0.02491002979379149,0.0816240698472582,-0.022406108790600936,0.11977515432983088,0.08000289898421559,0.0,0.0,0.0,0.0,0.0,0.0
-0.00767944870877505,0.0307177948351002,0.08168140899333462,9.536967125,-0.43312704166666666,-2.778550833333333,-0.0022852273309218775,0.02491002979379149,0.0816240698472582,-0.022406108790600936,0.11977515432983088,0.08000289898421559,0.0,0.0,0.0,0.0,0.0,0.0
0.011868238913561441,0.02652900463031381,0.08936085770210968,9.046634625,-0.3023717083333333,-2.435318083333333,-0.0022852273309218775,0.02491002979379149,0.0816240698472582,-0.022406108790600936,0.11977515432983088,0.08000289898421559,0.0,0.0,0.0,0.0,0.0,0.0
0.02024581932313422,0.008377580409572781,0.08866272600131193,9.496106083333332,0.024516625,-2.778550833333333,-0.0022852273309218775,0.02491002979379149,0.0816240698472582,-0.022406108790600936,0.11977515432983088,0.08000289898421559,0.005579190513806664,-0.010374354586243511,0.0036013960740188156,0.021471476427327496,-0.031558685719282796,-0.07020684363460582
0.008377580409572781,0.029321531433504733,0.08168140899333462,9.447072833333333,0.08989429166666667,-2.6477955,-0.0022852273309218775,0.02491002979379149,0.0816240698472582,-0.022406108790600936,0.11977515432983088,0.08000289898421559,0.005857986409508728,0.005907459593292236,0.0024126873197163313,-0.08063877981433057,-0.002901497428837132,0.1505656628834522
-0.0027925268031909274,0.01815142422074103,0.0767944870877505,9.602344791666665,0.0980665,-2.9583394166666666,-0.0022852273309218775,0.02491002979379149,0.0816240698472582,-0.022406108790600936,0.11977515432983088,0.08000289898421559,0.0024607103315508988,-0.005346366042217824,-0.0040920063185490374,0.11956879297526324,-0.043617402706457684,-0.15184461385815864
-0.008377580409572781,0.028623399732707,0.08517206749732328,9.357178541666666,0.18796079166666665,-2.6641399166666666,-0.0022852273309218775,0.02491002979379149,0.0816240698472582,-0.022406108790600936,0.11977515432983088,0.08000289898421559,0.004692215157742356,0.006148806730472708,-0.0013339192262505372,-0.060204870249867364,0.09116809588990454,0.06864065528902837
-0.017453292519943295,0.016057029118347832,0.08726646259971647,9.471589458333332,0.008172208333333333,-2.811239666666667,-0.0022852273309218775,0.02491002979379149,0.0816240698472582,-0.022406108790600936,0.11977515432983088,0.08000289898421559,-0.00016348596575630067,-0.01014976409812791,-0.0015152020635962246,-0.08467295163381823,0.08720751583319723,-0.0332356790453278
-0.016755160819145562,0.03630284844148206,0.09075712110370514,9.635033625,-0.16344416666666667,-2.754034208333333,-0.0022852273309218775,0.02491002979379149,0.0816240698472582,-0.022406108790600936,0.11977515432983088,0.08000289898421559,-0.003920244290068284,0.0038195905110036564,0.001165105196327251,0.18489689795925696,0.07874993751903048,-0.07406542959183852
-0.009075712110370514,0.028623399732707,0.08866272600131193,9.259112041666667,-0.318716125,-2.6151066666666667,-0.0022852273309218775,0.02491002979379149,0.0816240698472582,-0.022406108790600936,0.11977515432983088,0.08000289898421559,-0.005977090149195411,1.4916139020413427e-06,0.0006562074807617106,0.05430393661929654,-0.015238461033849869,-0.05370976352083395
0.0027925268031909274,0.028623399732707,0.08726646259971647,9.144701125,-0.2860272916666666,-2.5170401666666664,-0.0022852273309218775,0.02491002979379149,0.0816240698472582,-0.022406108790600936,0.11977515432983088,0.08000289898421559,-0.004976322016040175,0.01180419424940242,0.0024129336075000294,-0.11341334852738638,-0.006874635667559733,0.0032708654464841426
0.012566370614359173,0.005585053606381855,0.08307767239493008,9.36535075,-0.269682875,-2.5333845833333335,-0.0022852273309218775,0.02491002979379149,0.0816240698472582,-0.022406108790600936,0.11977515432983088,0.08000289898421559,0.00021872338613241997,-0.010053476768642964,0.0022654425231756906,-0.2276808457002977,-0.17448657545524435,0.1667463936678695
0.012566370614359173,0.02583087292951608,0.07819075048934597,9.814822208333332,0.08172208333333333,-2.8766173333333334,-0.0022852273309218775,0.02491002979379149,0.0816240698472582,-0.022406108790600936,0.11977515432983088,0.08000289898421559,0.007012431591035085,-0.0024197935677712857,0.002197547499663476,0.21948980899012802,-0.011940756904239897,-0.5241613754194004
0.0006981317007977319,0.025132741228718346,0.0767944870877505,9.210078791666666,0.11441091666666667,-2.631451083333333,-0.0022852273309218775,0.02491002979379149,0.0816240698472582,-0.022406108790600936,0.11977515432983088,0.08000289898421559,0.004757066102684794,0.005098730218991888,-0.0005151309413254706,-0.10526611444800875,-0.0027458206917352194,0.08101125803306194
-0.008377580409572781,0.014660765716752367,0.07749261878854824,9.414383999999998,0.122583125,-2.803067458333333,-0.0022852273309218775,0.02491002979379149,0.0816240698472582,-0.022406108790600936,0.11977515432983088,0.08000289898421559,0.0008773531777248933,-0.0071884884178352645,-0.0013659517162107186,0.06650276364099651,0.10369709181739353,-0.1437783319153243
-0.010471975511965976,0.028623399732707,0.08028514559173915,9.275456458333332,-0.08172208333333333,-2.5252123749999997,-0.0022852273309218775,0.02491002979379149,0.0816240698472582,-0.022406108790600936,0.11977515432983088,0.08000289898421559,0.0020482006295274705,0.001284605768731968,-0.0035663360420149144,-0.17045813074840227,-0.023353425780428965,0.2037395681166155
-0.014660765716752367,0.02652900463031381,0.08726646259971647,9.610517,-0.032688833333333334,-2.941995,-0.0022852273309218775,0.02491002979379149,0.0816240698472582,-0.022406108790600936,0.11977515432983088,0.08000289898421559,-0.0011015615053958086,-0.0013081165662065337,0.002698395546905423,0.15628306130412556,0.14035150641230945,-0.22533397072224376
-0.012566370614359173,0.029321531433504733,0.08237954069413235,9.291800875,-0.3105439166666667,-2.5006957499999998,-0.0022852273309218775,0.02491002979379149,0.0816240698472582,-0.022406108790600936,0.11977515432983088,0.08000289898421559,-0.004707867355457977,-0.0005327073429980846,-0.001980854639401472,-0.027345033324954984,-0.011062454068407298,0.09334600554849434
-0.0027925268031909274,0.030019663134302467,0.08656833089891874,9.340834124999999,-0.2860272916666666,-2.69682875,-0.0022852273309218775,0.02491002979379149,0.0816240698472582,-0.022406108790600936,0.11977515432983088,0.08000289898421559,-0.0065679449730561505,0.0034732934199782363,0.0003394916368913473,0.09511167050199332,-0.015135874206682779,-0.15568527922629166
0.010471975511965976,0.023736477827122883,0.08587019919812101,9.144701125,-0.2533384583333333,-2.3944570416666666,-0.0022852273309218775,0.02491002979379149,0.0816240698472582,-0.022406108790600936,0.11977515432983088,0.08000289898421559,-0.0006856443021601209,0.0043920919514180735,0.001478242611170173,-0.26878578810705145,-0.10921584741053501,0.26060455295665197
0.01117010721276371,0.014660765716752367,0.08307767239493008,9.675894666666666,-0.032688833333333334,-2.9256505833333333,-0.0022852273309218775,0.02491002979379149,0.0816240698472582,-0.022406108790600936,0.11977515432983088,0.08000289898421559,0.002519548435900184,-0.00845958866900044,0.0006428081826130241,0.1564041165737774,-0.05192331754658285,-0.20905932550233045
0.006283185307179587,0.032114058236695664,0.08168140899333462,9.357178541666666,0.07354987499999999,-2.5170401666666664,-0.0022852273309218775,0.02491002979379149,0.0816240698472582,-0.022406108790600936,0.11977515432983088,0.08000289898421559,0.004739851377197226,0.009246610941658028,0.0011393641170054888,-0.0192723730238019,0.005491367675773237,0.1260241221005761
-0.0027925268031909274,0.013264502315156905,0.07958701389094143,9.389867375,0.06537766666666667,-2.778550833333333,-0.0022852273309218775,0.02491002979379149,0.0816240698472582,-0.022406108790600936,0.11977515432983088,0.08000289898421559,0.004675543290485464,-0.011371201055928034,0.0004003010837471019,-0.11248592749756513,0.06880064964285594,-0.6907246752146583
-0.009075712110370514,0.032812189937493394,0.07888888219014369,9.46341725,0.04086104166666667,-2.6641399166666666,-0.0022852273309218775,0.02491002979379149,0.0816240698472582,-0.022406108790600936,0.11977515432983088,0.08000289898421559,0.0011449459600952313,0.008941654325497223,-0.0032341678262551086,-0.023352559931668803,0.05866750552361942,0.1792498021957097
-0.01117010721276371,0.014660765716752367,0.08517206749732328,9.504278291666665,-0.07354987499999999,-3.0318892916666664,-0.0022852273309218775,0.02491002979379149,0.0816240698472582,-0.022406108790600936,0.11977515432983088,0.08000289898421559,-0.0016494800383002907,-0.011220177828296887,-0.00198944652749182,-0.05620963180581217,0.0542755366418467,-0.21730555625989945
-0.008377580409572781,0.03769911184307752,0.08936085770210968,9.610517,-0.17978858333333333,-2.606934458333333,-0.0022852273309218775,0.02491002979379149,0.0816240698472582,-0.022406108790600936,0.11977515432983088,0.08000289898421559,-0.0008447283367771629,0.00559751574966251,0.002762765138687684,0.07878081267901656,0.04214044415876724,0.04862409752548544
-0.006981317007977318,0.02583087292951608,0.08377580409572781,9.447072833333333,-0.26151066666666667,-2.7131731666666665,-0.0022852273309218775,0.02491002979379149,0.0816240698472582,-0.022406108790600936,0.11977515432983088,0.08000289898421559,-0.005686506784572493,-0.004199698076905332,-0.0005593126959592345,0.07074114543629892,-0.01109407174604636,-0.10668303856495645
0.004886921905584123,0.03420845333908886,0.08447393579652555,9.299973083333333,-0.23699404166666665,-2.5088679583333335,-0.0022852273309218775,0.02491002979379149,0.0816240698472582,-0.022406108790600936,0.11977515432983088,0.08000289898421559,-0.0028218231575207735,0.01426259600317509,-0.001809648433768716,-0.04813396049088054,-0.08059529341074799,0.07274021151780569
0.010471975511965976,0.006283185307179587,0.08866272600131193,9.389867375,-0.07354987499999999,-2.6641399166666666,-0.0022852273309218775,0.02491002979379149,0.0816240698472582,-0.022406108790600936,0.11977515432983088,0.08000289898421559,0.0010399361250845152,-0.011971606220534952,4.268514004131786e-05,-0.08059403058451674,-0.10108028806968637,0.015611851971477941
0.008377580409572781,0.030019663134302467,0.08866272600131193,9.545139333333333,0.13075533333333333,-2.705000958333333,-0.0022852273309218775,0.02491002979379149,0.0816240698472582,-0.022406108790600936,0.11977515432983088,0.08000289898421559,0.006575857182184203,0.00825465519163904,0.0018760535183610944,0.16037767477730142,0.046017578926835716,-0.10288793426150657
-0.004886921905584123,0.013962634015954637,0.08517206749732328,9.218250999999999,0.04086104166666667,-2.5088679583333335,-0.0022852273309218775,0.02491002979379149,0.0816240698472582,-0.022406108790600936,0.11977515432983088,0.08000289898421559,0.0017927018696248269,-0.004998220604848135,0.0018010429041328488,-0.1951003213106623,0.03405322060466,0.18305297213966065
-0.008377580409572781,0.023736477827122883,0.08168140899333462,9.602344791666665,-0.024516625,-2.8847895416666667,-0.0022852273309218775,0.02491002979379149,0.0816240698472582,-0.022406108790600936,0.11977515432983088,0.08000289898421559,-0.0013324032496287684,0.000525364871154175,-0.00287444783103298,0.17682945792717766,0.04615959043469322,-0.1928489666308295
-0.005585053606381855,0.023038346126325153,0.08726646259971647,9.242767624999999,-0.11441091666666667,-2.5088679583333335,-0.0022852273309218775,0.02491002979379149,0.0816240698472582,-0.022406108790600936,0.11977515432983088,0.08000289898421559,0.0011531636594182644,-0.0008136994570486427,0.00047533457002532756,-0.21034026522161223,0.05510452093634704,-0.653322577074697
-0.00767944870877505,0.02024581932313422,0.08517206749732328,9.46341725,-0.04903325,-2.8684451249999996,-0.0022852273309218775,0.02491002979379149,0.0816240698472582,-0.022406108790600936,0.11977515432983088,0.08000289898421559,-0.0014498664548529977,-0.0027063052043194012,0.0030120942597242984,0.09517541576279426,0.05430857012018224,-0.15189267837994314
-0.004886921905584123,0.02583087292951608,0.07888888219014369,9.26728425,-0.15527195833333335,-2.574245625,-0.0022852273309218775,0.02491002979379149,0.0816240698472582,-0.022406108790600936,0.11977515432983088,0.08000289898421559,-0.0020848462889974783,-0.00019214293496567166,0.001191153038155731,-0.1500327152000996,0.030088283416807773,0.11782152955596635
-0.0006981317007977319,0.02652900463031381,0.0767944870877505,9.561483749999999,-0.21247741666666667,-2.8194118749999997,-0.0022852273309218775,0.02491002979379149,0.0816240698472582,-0.022406108790600936,0.11977515432983088,0.08000289898421559,-0.006138873134848778,-0.0011737048927991484,-0.002638950342593893,0.221723710410631,-0.07226541263933252,-0.15173597710118314
0.01117010721276371,0.029321531433504733,0.08237954069413235,9.112012291666666,-0.06537766666666667,-2.5252123749999997,-0.0022852273309218775,0.02491002979379149,0.0816240698472582,-0.022406108790600936,0.11977515432983088,0.08000289898421559,0.0024630053702764383,0.00651160415502986,-0.002619257629020766,-0.22366590593209995,-0.07647926353618124,0.14242588883825338
0.006283185307179587,0.016057029118347832,0.08726646259971647,9.553311541666666,0.08989429166666667,-2.8194118749999997,-0.0022852273309218775,0.02491002979379149,0.0816240698472582,-0.022406108790600936,0.11977515432983088,0.08000289898421559,0.004317012650935354,-0.005385194387258632,0.0013552080516061645,0.14409740331475968,-0.027348992022865337,-0.16845257105448938
-0.0020943951023931952,0.02652900463031381,0.08517206749732328,9.259112041666667,0.14709974999999997,-2.4925235416666665,-0.0022852273309218775,0.02491002979379149,0.0816240698472582,-0.022406108790600936,0.11977515432983088,0.08000289898421559,0.004080018167334282,0.005575403065342308,0.0024442372855010834,-0.13800054950060087,0.13613136433367118,0.13418471069736493
-0.010471975511965976,0.0153588974175501,0.08028514559173915,9.528794916666666,-0.122583125,-2.7703786249999998,-0.0022852273309218775,0.02491002979379149,0.0816240698472582,-0.022406108790600936,0.11977515432983088,0.08000289898421559,-0.00248487330234703,-0.007609893394800357,-0.001541142568394663,0.10751507724547482,0.03400788845120982,-0.13955105997082506
-0.005585053606381855,0.0307177948351002,0.08307767239493008,9.308145291666667,-0.18796079166666665,-2.5006957499999998,-0.0022852273309218775,0.02491002979379149,0.0816240698472582,-0.022406108790600936,0.11977515432983088,0.08000289898421559,-0.00032641463704193724,0.006015582163431098,0.00019964410339359521,-0.07248898474307824,-0.0028649148817754054,0.13002583044194607
-0.004886921905584123,0.01884955592153876,0.08307767239493008,9.447072833333333,-0.17978858333333333,-2.7703786249999998,-0.0022852273309218775,0.02491002979379149,0.0816240698472582,-0.022406108790600936,0.11977515432983088,0.08000289898421559,-0.0001302068287221118,-0.005762809349751984,0.0028295449645881943,-0.015362000431935944,-0.04361262686722545,-0.08226465451425613
-0.004886921905584123,0.0307177948351002,0.07749261878854824,9.471589458333332,-0.08989429166666667,-2.6151066666666667,-0.0022852273309218775,0.02491002979379149,0.0816240698472582,-0.022406108790600936,0.11977515432983088,0.08000289898421559,-0.0018029654387970975,0.002699780772955538,0.0020442979109627103,-0.07683249912530847,0.1440340811955608,-1.0083103028106344
-0.0020943951023931952,0.019547687622336492,0.0767944870877505,9.349006333333334,-0.17161637500000002,-2.6477955,-0.0022852273309218775,0.02491002979379149,0.0816240698472582,-0.022406108790600936,0.11977515432983088,0.08000289898421559,-0.004827371114534768,-0.007050576545736459,0.0004203204769366261,0.0011008579521651805,0.009578330645026169,0.003485279021310048
0.00767944870877505,0.033510321638291124,0.07609635538695278,9.340834124999999,-0.18796079166666665,-2.6641399166666666,-0.0022852273309218775,0.02491002979379149,0.0816240698472582,-0.022406108790600936,0.11977515432983088,0.08000289898421559,0.0013052123258242739,0.007814666181343846,-0.00407184023604689,0.04604656235145545,-0.1294838963862126,0.040236478018343916
0.004886921905584123,0.01815142422074103,0.08447393579652555,9.242767624999999,0.07354987499999999,-2.754034208333333,-0.0022852273309218775,0.02491002979379149,0.0816240698472582,-0.022406108790600936,0.11977515432983088,0.08000289898421559,0.004908565821428138,-0.004432412612423729,-0.0014190410012034772,-0.12575867367436985,-0.06824510801987085,-0.017133723173019682
-0.004886921905584123,0.02722713633111154,0.08726646259971647,9.487933875,0.21247741666666667,-2.729517583333333,-0.0022852273309218775,0.02491002979379149,0.0816240698472582,-0.022406108790600936,0.11977515432983088,0.08000289898421559,0.0008729394541695719,0.001139736627875893,-0.0002472463311331691,0.07070210443450296,0.1729078634532589,-0.0823609849430771
-0.006981317007977318,0.024434609527920613,0.0879645943005142,9.340834124999999,-0.13075533333333333,-2.574245625,-0.0022852273309218775,0.02491002979379149,0.0816240698472582,-0.022406108790600936,0.11977515432983088,0.08000289898421559,0.002789155507218368,0.0008742877763339567,0.0024736614023560233,-0.20327526640469862,0.03391547380610994,0.0974555292739714
-0.012566370614359173,0.023038346126325153,0.08307767239493008,9.741272333333333,-0.196133,-2.778550833333333,-0.0022852273309218775,0.02491002979379149,0.0816240698472582,-0.022406108790600936,0.11977515432983088,0.08000289898421559,-0.0039000230007842744,0.0011714187895218967,-0.002265138942217208,0.20536209588904514,-0.023301547233327526,-0.09888703391628872
-0.0041887902047863905,0.020943951023931952,0.0879645943005142,9.324489708333333,-0.14709974999999997,-2.5905900416666663,-0.0022852273309218775,0.02491002979379149,0.0816240698472582,-0.022406108790600936,0.11977515432983088,0.08000289898421559,-0.0024574068351512473,-0.0005435637961015717,-0.00015683343276851034,-0.1133071237335302,0.029766558191338378,0.08117730392105679
0.0006981317007977319,0.02234021442552742,0.0879645943005142,9.545139333333333,-0.20430520833333332,-2.7622064166666664,-0.0022852273309218775,0.02491002979379149,0.0816240698472582,-0.022406108790600936,0.11977515432983088,0.08000289898421559,-0.001873030456682052,-0.0019669074418599527,0.00414069304217705,0.029644057733155843,-0.00684012565082021,-0.10690109951360548
0.0041887902047863905,0.02583087292951608,0.07958701389094143,9.479761666666667,-0.18796079166666665,-2.557901208333333,-0.0022852273309218775,0.02491002979379149,0.0816240698472582,-0.022406108790600936,0.11977515432983088,0.08000289898421559,2.900638303337081e-05,-0.0010021626714382971,0.0011190961149199403,-0.07251134315661545,-0.04361578961615121,0.1219021598941757
0.0041887902047863905,0.027925268031909273,0.07749261878854824,9.618689208333333,-0.0980665,-2.811239666666667,-0.0022852273309218775,0.02491002979379149,0.0816240698472582,-0.022406108790600936,0.11977515432983088,0.08000289898421559,-0.001020518528030336,-0.00657490713052281,0.0003223215952413315,0.018047246457118242,0.024942682902695405,-1.3108222665545841
0.0041887902047863905,0.03420845333908886,0.07819075048934597,9.26728425,0.057205458333333334,-2.5252123749999997,-0.0022852273309218775,0.02491002979379149,0.0816240698472582,-0.022406108790600936,0.11977515432983088,0.08000289898421559,0.005883141914156628,0.007872446708523757,-0.0013519905364875664,-0.04782087379169609,-0.027236134247204977,0.02386406243497808
-0.00767944870877505,0.01815142422074103,0.08098327729253688,9.357178541666666,0.11441091666666667,-2.582417833333333,-0.0022852273309218775,0.02491002979379149,0.0816240698472582,-0.022406108790600936,0.11977515432983088,0.08000289898421559,-0.0019214455656114057,-0.005118877460013247,-0.002536790481629332,-0.05619184798074298,0.054486491520110675,0.0238096494878642
-0.0041887902047863905,0.028623399732707,0.08656833089891874,9.46341725,0.008172208333333333,-2.6396232916666666,-0.0022852273309218775,0.02491002979379149,0.0816240698472582,-0.022406108790600936,0.11977515432983088,0.08000289898421559,0.0022752652468601767,0.0034180798740784716,0.002095257554949524,0.0420118694529063,0.08289367482047087,0.02386788818185854
-0.008377580409572781,0.02234021442552742,0.08237954069413235,9.373522958333332,-0.15527195833333335,-2.69682875,-0.0022852273309218775,0.02491002979379149,0.0816240698472582,-0.022406108790600936,0.11977515432983088,0.08000289898421559,-0.0010514940925520251,-0.004630794609152601,-0.0019172227936117133,-0.043821521967114016,-0.010994639541639893,0.01584727342874786
-0.006283185307179587,0.031415926535897934,0.08656833089891874,9.455245041666666,-0.13075533333333333,-2.7376897916666665,-0.0022852273309218775,0.02491002979379149,0.0816240698472582,-0.022406108790600936,0.11977515432983088,0.08000289898421559,-0.0015607375084984228,0.007591127931838005,0.0017613773612681998,0.06233328349148559,0.06259868332254487,-0.03749451499374143
-0.003490658503988659,0.016057029118347832,0.08307767239493008,9.324489708333333,-0.2533384583333333,-2.672312125,-0.0022852273309218775,0.02491002979379149,0.0816240698472582,-0.022406108790600936,0.11977515432983088,0.08000289898421559,-0.0007458438177339131,-0.0008483463299594964,0.004227672636472156,-0.14602336548478778,-0.023047268582570304,0.0890149777624292
-0.0013962634015954637,0.01815142422074103,0.0747000919853573,9.610517,-0.20430520833333332,-2.8602729166666667,-0.0022852273309218775,0.02491002979379149,0.0816240698472582,-0.022406108790600936,0.11977515432983088,0.08000289898421559,-0.004799259836925275,-0.0026787460695851255,-0.0007435597685734982,0.11144185535495939,-0.059952737592321725,-0.09471241276420725
0.008377580409572781,0.023736477827122883,0.07609635538695278,9.381695166666667,-0.08172208333333333,-2.680484333333333,-0.0022852273309218775,0.02491002979379149,0.0816240698472582,-0.022406108790600936,0.11977515432983088,0.08000289898421559,-0.001513204337500687,-0.00047884434227110124,-0.002745304716891903,0.017292851013374296,-0.1132085284212613,-0.004763182341844063
0.01117010721276371,0.024434609527920613,0.08168140899333462,9.340834124999999,0.14709974999999997,-2.680484333333333,-0.0022852273309218775,0.02491002979379149,0.0816240698472582,-0.022406108790600936,0.11977515432983088,0.08000289898421559,0.006037168213299612,0.0015998113165423909,-8.879568072538465e-05,-0.019258308332095138,-0.006945411820423838,-0.04556838700406006
-0.0013962634015954637,0.020943951023931952,0.08168140899333462,9.373522958333332,0.16344416666666667,-2.59876225,-0.0022852273309218775,0.02491002979379149,0.0816240698472582,-0.022406108790600936,0.11977515432983088,0.08000289898421559,0.006159557546631488,0.0016566040958566714,-0.0015198529442411312,-0.20060543406360704,0.1774551633369806,-1.2111366305953304
-0.01117010721276371,0.0153588974175501,0.08587019919812101,9.430728416666666,0.057205458333333334,-2.7458620000000002,-0.0022852273309218775,0.02491002979379149,0.0816240698472582,-0.022406108790600936,0.11977515432983088,0.08000289898421559,0.0005250412428713427,-0.0022325140031216936,-0.002747599012206592,0.05818952945412383,0.11554014598223962,-0.08670716182342503
-0.011868238913561441,0.02024581932313422,0.09145525280450287,9.308145291666667,-0.17161637500000002,-2.582417833333333,-0.0022852273309218775,0.02491002979379149,0.0816240698472582,-0.022406108790600936,0.11977515432983088,0.08000289898421559,-0.0023077777860130376,0.002665603329810216,-0.0002995355173387193,0.00101659580856634,0.00932313608405257,0.035965522840216396
-0.00767944870877505,0.014660765716752367,0.09215338450530061,9.299973083333333,-0.18796079166666665,-2.6641399166666666,-0.0022852273309218775,0.02491002979379149,0.0816240698472582,-0.022406108790600936,0.11977515432983088,0.08000289898421559,-0.0026280812889981453,-0.003743222015714348,0.003008296266272625,-0.07259415321347601,0.06642088142077414,-0.0007458141127530937
-0.0020943951023931952,0.02234021442552742,0.08656833089891874,9.438900625,-0.318716125,-2.672312125,-0.0022852273309218775,0.02491002979379149,0.0816240698472582,-0.022406108790600936,0.11977515432983088,0.08000289898421559,-0.00273766224587941,0.004320835931926811,-0.00038520664068878623,-0.06016160400027447,-0.023290239595782008,-0.02116001929372848
0.003490658503988659,0.013264502315156905,0.08726646259971647,9.553311541666666,-0.269682875,-2.6396232916666666,-0.0022852273309218775,0.02491002979379149,0.0816240698472582,-0.022406108790600936,0.11977515432983088,0.08000289898421559,-0.004316099128209492,-0.0044175333182216855,0.006419203721620835,-0.11739959085509215,-0.0029028584830581516,0.060320780995669544
0.011868238913561441,0.02234021442552742,0.07400196028455958,9.782133375,-0.26151066666666667,-2.7703786249999998,-0.0022852273309218775,0.02491002979379149,0.0816240698472582,-0.022406108790600936,0.11977515432983088,0.08000289898421559,5.945868660292217e-05,-0.005518428244438776,0.00027789365250212436,0.23812558324649613,-0.22317051805557467,-0.11079751339823923
0.011868238913561441,0.033510321638291124,0.07400196028455958,9.299973083333333,0.18796079166666665,-2.557901208333333,-0.0022852273309218775,0.02491002979379149,0.0816240698472582,-0.022406108790600936,0.11977515432983088,0.08000289898421559,0.003557181049672449,0.008162636936348373,-0.0036242487791901005,-0.06850455261128634,0.013513947778880268,0.13425840573701764
0.004886921905584123,0.017453292519943295,0.08098327729253688,9.430728416666666,0.16344416666666667,-2.8357562916666668,-0.0022852273309218775,0.02491002979379149,0.0816240698472582,-0.022406108790600936,0.11977515432983088,0.08000289898421559,0.009633684451129726,-0.0023651916960498154,-0.001839070384648354,-0.015246972553097113,0.029956096003316036,-0.11116010924370347
-0.014660765716752367,0.02234021442552742,0.08517206749732328,9.455245041666666,0.10623870833333333,-2.623278875,-0.0022852273309218775,0.02491002979379149,0.0816240698472582,-0.022406108790600936,0.11977515432983088,0.08000289898421559,0.000908717072415618,-0.00017219547304853826,-0.003956728094284423,0.05025549678811944,0.11961854958325469,-0.033330230530334085
-0.016755160819145562,0.02234021442552742,0.09285151620609833,9.349006333333334,-0.13075533333333333,-2.5660734166666663,-0.0022852273309218775,0.02491002979379149,0.0816240698472582,-0.022406108790600936,0.11977515432983088,0.08000289898421559,0.0017951169269507415,-0.006448217327398784,0.0030451922308795207,-0.13230931403533822,0.28155193540831686,-1.348004992814835
-0.017453292519943295,0.02722713633111154,0.0879645943005142,9.250939833333334,-0.2860272916666666,-2.672312125,-0.0022852273309218775,0.02491002979379149,0.0816240698472582,-0.022406108790600936,0.11977515432983088,0.08000289898421559,-0.007477107812679154,0.005896284146155713,-0.00040993617469779596,-0.04777251889315191,0.0788135419288663,0.007581303837767908
-0.0027925268031909274,0.0153588974175501,0.08866272600131193,9.340834124999999,-0.44129925,-2.69682875,-0.0022852273309218775,0.02491002979379149,0.0816240698472582,-0.022406108790600936,0.11977515432983088,0.08000289898421559,-0.007363832281334032,0.0028122344319961934,-0.00034157682930694734,-0.027653583020527103,-0.06018120893462065,-0.04196160921741365
0.011868238913561441,0.009773843811168246,0.08936085770210968,9.389867375,-0.318716125,-2.623278875,-0.0022852273309218775,0.02491002979379149,0.0816240698472582,-0.022406108790600936,0.11977515432983088,0.08000289898421559,-0.0034453348459589574,-0.0012802240532505745,0.005232725323158621,-0.1910434686713109,-0.12140084813008287,0.08898325660791373
0.01884955592153876,0.012566370614359173,0.07888888219014369,9.765788958333333,-0.07354987499999999,-2.811239666666667,-0.0022852273309218775,0.02491002979379149,0.0816240698472582,-0.022406108790600936,0.11977515432983088,0.08000289898421559,0.0027777154350301088,-0.010126567013669785,0.004875537719384369,0.13168690131452657,-0.1744283561630425,-0.012932519862952829
0.013264502315156905,0.032812189937493394,0.06981317007977318,9.496106083333332,0.2778550833333333,-2.7948952499999997,-0.0022852273309218775,0.02491002979379149,0.0816240698472582,-0.022406108790600936,0.11977515432983088,0.08000289898421559,0.0068169884675609825,0.012017121455556768,-0.0049336894974630115,0.1932582969595336,-0.08434533556054055,-0.1518780451218716
-0.0006981317007977319,0.009075712110370514,0.07958701389094143,9.103840083333333,0.4494714583333333,-2.5006957499999998,-0.0022852273309218775,0.02491002979379149,0.0816240698472582,-0.022406108790600936,0.11977515432983088,0.08000289898421559,0.00881583988930692,0.003535323307121488,-0.0007758506254365947,-0.2974718411226696,0.09121917463811269,0.019223458006058507
-0.01815142422074103,0.0020943951023931952,0.08098327729253688,9.692239083333332,0.269682875,-2.549729,-0.0022852273309218775,0.02491002979379149,0.0816240698472582,-0.022406108790600936,0.11977515432983088,0.08000289898421559,0.006294110970290896,-0.004543343832885535,0.0034657279400717297,0.08281550034937012,0.07525048717758948,0.007218931414120273
-0.0307177948351002,0.01117010721276371,0.0747000919853573,9.520622708333333,0.122583125,-2.574245625,-0.0022852273309218775,0.02491002979379149,0.0816240698472582,-0.022406108790600936,0.11977515432983088,0.08000289898421559,0.0020257253404167876,0.004529271179513284,-0.0005200597145307153,0.0009569370998251947,0.20580040606294345,-0.0012159009566729154
-0.03490658503988659,0.0020943951023931952,0.07539822368615504,9.5124505,-0.2860272916666666,-2.582417833333333,-0.0022852273309218775,0.02491002979379149,0.0816240698472582,-0.022406108790600936,0.11977515432983088,0.08000289898421559,-0.0064298887240745424,0.0043222631679446745,0.00587902040205982,0.00507865894445258,0.16944638167993714,-0.01767069311015011
-0.021642082724729686,-0.006981317007977318,0.0635299847725936,9.496106083333332,-0.6210878333333334,-2.557901208333333,-0.0022852273309218775,0.02491002979379149,0.0816240698472582,-0.022406108790600936,0.11977515432983088,0.08000289898421559,-0.02748178619971914,-0.010361733276489645,0.006654240182131533,-0.37386698621706155,0.4485278132421069,-1.4761624416231862
0.02652900463031381,0.012566370614359173,0.06213372137099814,9.724927916666667,-0.9970094166666666,-2.557901208333333,-0.0022852273309218775,0.02491002979379149,0.0816240698472582,-0.022406108790600936,0.11977515432983088,0.08000289898421559,-0.023194956941067272,0.00024537314223321003,-0.0019202162620456317,0.04186540307478404,-0.19466140232299162,0.09303203337320376
0.07330382858376185,0.012566370614359173,0.06562437987498679,9.635033625,-0.6047434166666666,-2.754034208333333,-0.0022852273309218775,0.02491002979379149,0.0816240698472582,-0.022406108790600936,0.11977515432983088,0.08000289898421559,-0.006709491026226989,-0.012044454813890769,-0.008287207770071796,0.11962927301129235,-0.468949444470557,0.031954613669139674
0.08656833089891874,0.03630284844148206,0.08237954069413235,9.389867375,0.3350605416666666,-2.827584083333333,-0.0022852273309218775,0.02491002979379149,0.0816240698472582,-0.022406108790600936,0.11977515432983088,0.08000289898421559,0.025040694353452315,-0.0024977398893350775,-0.011986726801626931,0.062465181252609435,-0.620616137473913,0.06484400265260039
0.03630284844148206,0.041189770347066175,0.10611601852125524,9.259112041666667,1.5772362083333331,-2.966511625,-0.0022852273309218775,0.02491002979379149,0.0816240698472582,-0.022406108790600936,0.11977515432983088,0.08000289898421559,0.04427339421561924,-0.0038579678258214545,-0.01418595238098734,-0.04345418436403798,-0.09763141105095477,0.012117363490102173
-0.05235987755982988,0.04956735075663895,0.13473941825396224,9.340834124999999,1.7733692083333334,-2.999200458333333,-0.0022852273309218775,0.02491002979379149,0.0816240698472582,-0.022406108790600936,0.11977515432983088,0.08000289898421559,0.0383938605654286,0.0007420429877597088,0.002110942818287084,0.34458245962147105,0.6544961328803849,-0.2900440759286257
-0.1291543646475804,0.04817108735504349,0.13055062804917586,8.646196416666667,0.465815875,-2.427145875,-0.0022852273309218775,0.02491002979379149,0.0816240698472582,-0.022406108790600936,0.11977515432983088,0.08000289898421559,-0.0035798295177677424,0.014380260374841983,0.005175604089444595,-0.019499269574169906,0.8919029977178363,-0.04993352777382484
-0.12217304763960307,0.01884955592153876,0.12077678423800758,8.67888525,-1.3157255416666664,-2.3372515833333334,-0.0022852273309218775,0.02491002979379149,0.0816240698472582,-0.022406108790600936,0.11977515432983088,0.08000289898421559,-0.04360593207041827,0.011593783833387574,0.006550983165621546,-0.17899196082805782,0.5934684236412306,0.05155090426741781
-0.03490658503988659,-0.0041887902047863905,0.1075122819228507,9.030290208333332,-2.5006957499999998,-2.4516625,-0.0022852273309218775,0.02491002979379149,0.0816240698472582,-0.022406108790600936,0.11977515432983088,0.08000289898421559,-0.047493110835192545,0.011596192925052373,0.01812620714892984,-0.26485261691534373,-0.40345802596646946,0.21100712282319375
0.060039326268604934,-0.02722713633111154,0.07120943348136866,9.553311541666666,-1.6916471249999998,-2.8847895416666667,-0.0022852273309218775,0.02491002979379149,0.0816240698472582,-0.022406108790600936,0.11977515432983088,0.08000289898421559,-0.031668119624319147,-0.01850094563483914,0.013663912357191008,-0.2648258081600704,-0.8118251885312963,0.023016092377257817
0.12356931104119852,0.009773843811168246,0.0439822971502571,10.076332875,-0.06537766666666667,-2.941995,-0.0022852273309218775,0.02491002979379149,0.0816240698472582,-0.022406108790600936,0.11977515432983088,0.08000289898421559,0.006101578350109063,-0.024576743751760464,0.012562884429752102,0.1924095482246611,-0.666836539115777,-1.6705308501073386
0.08447393579652555,0.046076692252650306,0.031415926535897934,9.218250999999999,1.2421756666666668,-2.582417833333333,-0.0022852273309218775,0.02491002979379149,0.0816240698472582,-0.022406108790600936,0.11977515432983088,0.08000289898421559,0.04160278614438275,0.004051750449492027,-0.004947882099834232,-0.09706049890251262,-0.28806360365986955,0.07310447396935467
0.0013962634015954637,0.03769911184307752,0.041887902047863905,9.406211791666665,1.8224024583333331,-2.7376897916666665,-0.0022852273309218775,0.02491002979379149,0.0816240698472582,-0.022406108790600936,0.11977515432983088,0.08000289898421559,0.03245316989277731,-0.006865472466084862,-0.019603484177669637,-0.06837961879827746,0.37383899737850124,0.0204315835837769
-0.0635299847725936,0.05166174585903216,0.08098327729253688,9.536967125,1.0787315,-2.7867230416666664,-0.0022852273309218775,0.02491002979379149,0.0816240698472582,-0.022406108790600936,0.11977515432983088,0.08000289898421559,0.015053697329342896,0.000811959407903349,-0.010611602968768948,-0.0068044528481916895,0.45118799151378514,0.053048405360949444
-0.09354964790689606,0.04956735075663895,0.10192722831646883,9.545139333333333,0.17978858333333333,-2.9011339583333333,-0.0022852273309218775,0.02491002979379149,0.0816240698472582,-0.022406108790600936,0.11977515432983088,0.08000289898421559,-0.009653013812478914,-0.0013918172706746874,-0.005228304018516564,-0.07639206836039042,0.4342926139405045,-0.02483530877963014
-0.0747000919853573,0.05305800926062762,0.11309733552923257,9.692239083333332,-0.6864655000000001,-2.8602729166666667,-0.0022852273309218775,0.02491002979379149,0.0816240698472582,-0.022406108790600936,0.11977515432983088,0.08000289898421559,-0.02280825330556635,-0.007260560978042933,0.0042872317667640835,0.2136516818926608,0.36475317678999947,-0.24507310026835108
-0.029321531433504733,0.06771877497737998,0.10402162341886204,9.259112041666667,-1.4137920416666665,-2.378112625,-0.0022852273309218775,0.02491002979379149,0.0816240698472582,-0.022406108790600936,0.11977515432983088,0.08000289898421559,-0.02746955383729993,0.027077625127574625,0.005645336887603707,0.0747806870725363,-0.10951720839987435,-0.0778585767295128
0.02583087292951608,0.013264502315156905,0.09285151620609833,9.103840083333333,-1.1931424166666666,-2.231012875,-0.0022852273309218775,0.02491002979379149,0.0816240698472582,-0.022406108790600936,0.11977515432983088,0.08000289898421559,-0.02315828243089412,-0.0002519533449310533,0.004713186542649714,-0.17481283445772217,-0.41179585531354806,0.10543352309462933
0.07190756518216637,0.013962634015954637,0.08377580409572781,9.447072833333333,-0.367749375,-2.4516625,-0.0022852273309218775,0.02491002979379149,0.0816240698472582,-0.022406108790600936,0.11977515432983088,0.08000289898421559,0.0018130285958568118,0.005240636585027569,-0.0003824970562677587,-0.06849123686734379,-0.43654914606583356,0.17458523348556687
0.06841690667817772,0.003490658503988659,0.08447393579652555,9.577828166666666,0.5066769166666666,-2.811239666666667,-0.0022852273309218775,0.02491002979379149,0.0816240698472582,-0.022406108790600936,0.11977515432983088,0.08000289898421559,0.019743496641355905,-1.7928668802649335e-05,-2.1346112375541078e-05,-0.05636782326589469,-0.21163007749524715,0.10077858727792671
0.029321531433504733,0.003490658503988659,0.08447393579652555,9.684066875,0.93163175,-3.023717083333333,-0.0022852273309218775,0.02491002979379149,0.0816240698472582,-0.022406108790600936,0.11977515432983088,0.08000289898421559,0.03401475046517187,-0.014010842232939606,0.0010778187276457788,-0.16565468900772096,0.46091061836802577,-1.7061942309714146
-0.016057029118347832,0.02722713633111154,0.07749261878854824,9.5124505,0.3759215833333333,-2.6886565416666666,-0.0022852273309218775,0.02491002979379149,0.0816240698472582,-0.022406108790600936,0.11977515432983088,0.08000289898421559,0.018375019868418965,0.013369496183675294,0.0026338701934863033,0.08688331849160802,0.18138798053873104,-0.14402035094565263
-0.05235987755982988,0.0006981317007977319,0.07260569688296412,9.332661916666666,0.016344416666666667,-2.4108014583333333,-0.0022852273309218775,0.02491002979379149,0.0816240698472582,-0.022406108790600936,0.11977515432983088,0.08000289898421559,-0.008639228879428045,-0.0015193019796667564,-0.008390517501547852,0.1030324274961846,0.0221384879888998,0.06831051022639091
-0.03490658503988659,0.0041887902047863905,0.08936085770210968,9.1201845,-0.024516625,-2.557901208333333,-0.0022852273309218775,0.02491002979379149,0.0816240698472582,-0.022406108790600936,0.11977515432983088,0.08000289898421559,-0.002993352616115966,0.004613068468028367,-0.00317174990627119,-0.16242751225677554,0.12375515513067968,0.10501323447765658
-0.029321531433504733,-0.005585053606381855,0.09634217471008698,9.438900625,-0.269682875,-2.778550833333333,-0.0022852273309218775,0.02491002979379149,0.0816240698472582,-0.022406108790600936,0.11977515432983088,0.08000289898421559,-0.0058820108298420545,-0.007082730058999807,0.00039283444226636844,-0.16262870953587225,0.04193220336107483,0.10492424401187542
-0.017453292519943295,0.009075712110370514,0.09494591130849153,9.757616749999999,-0.35140495833333335,-2.999200458333333,-0.0022852273309218775,0.02491002979379149,0.0816240698472582,-0.022406108790600936,0.11977515432983088,0.08000289898421559,-0.007805361585052294,-0.01591339131268202,0.012895923350993278,0.14823861123580823,0.10355154295533027,-0.23753458623909646
-0.0020943951023931952,0.041189770347066175,0.06981317007977318,9.455245041666666,-0.5557101666666666,-2.5333845833333335,-0.0022852273309218775,0.02491002979379149,0.0816240698472582,-0.022406108790600936,0.11977515432983088,0.08000289898421559,-0.009276977576591914,0.0033164914456717655,0.005763416657082493,0.14421471559433915,0.01803952570859052,-0.08207763299186487
0.016057029118347832,0.03420845333908886,0.05794493116621174,9.161045541666667,-0.5883989999999999,-2.378112625,-0.0022852273309218775,0.02491002979379149,0.0816240698472582,-0.022406108790600936,0.11977515432983088,0.08000289898421559,-0.007996605915721149,0.004190798803488044,-0.006975546293806993,0.24223773685643052,-0.23960770359155387,0.077051354072865
0.032114058236695664,0.02583087292951608,0.07190756518216637,8.670713041666666,-0.10623870833333333,-2.5415567916666664,-0.0022852273309218775,0.02491002979379149,0.0816240698472582,-0.022406108790600936,0.11977515432983088,0.08000289898421559,-0.00026255846631173784,0.013274243123919517,-0.01161856796719893,-0.37094442926968535,-0.12163695224568372,0.1666839972911028
0.032812189937493394,-0.0006981317007977319,0.09494591130849153,9.406211791666665,0.13892754166666665,-2.8847895416666667,-0.0022852273309218775,0.02491002979379149,0.0816240698472582,-0.022406108790600936,0.11977515432983088,0.08000289898421559,0.008962034617596171,-0.022491974952645558,0.0034385496294757458,-0.29300652867284416,-0.10119116673135468,0.13400126451041255
0.0153588974175501,0.0439822971502571,0.08866272600131193,9.986438583333333,0.34323275000000003,-3.162644625,-0.0022852273309218775,0.02491002979379149,0.0816240698472582,-0.022406108790600936,0.11977515432983088,0.08000289898421559,0.010759094008027988,-0.019097559071584773,0.007770258148905472,0.25448563105682054,0.2517457863818614,-1.875069083899313
-0.00767944870877505,0.06422811647339133,0.07958701389094143,8.981256958333333,0.2860272916666666,-2.574245625,-0.0022852273309218775,0.02491002979379149,0.0816240698472582,-0.022406108790600936,0.11977515432983088,0.08000289898421559,0.012567536410506055,0.021173248996864468,0.009846596210844716,-0.17032642821371777,0.26323944736997007,0.0037953368769150187
-0.033510321638291124,0.02234021442552742,0.060039326268604934,9.316317499999998,-0.23699404166666665,-2.5905900416666663,-0.0022852273309218775,0.02491002979379149,0.0816240698472582,-0.022406108790600936,0.11977515432983088,0.08000289898421559,0.0024216021889631625,-0.0031862775016717427,-0.0070090593912298885,0.13187454815140973,-0.12073886542841508,0.0035085186562578965
-0.03839724354387525,0.028623399732707,0.07400196028455958,9.046634625,0.008172208333333333,-2.606934458333333,-0.0022852273309218775,0.02491002979379149,0.0816240698472582,-0.022406108790600936,0.11977515432983088,0.08000289898421559,-0.007283585629248744,0.010519365479662188,-0.012388252725400275,-0.2400605269623885,0.12792427189220618,0.11363960344284214
-0.023736477827122883,0.00767944870877505,0.0991347015132779,9.520622708333333,-0.24516625,-2.8439284999999996,-0.0022852273309218775,0.02491002979379149,0.0816240698472582,-0.022406108790600936,0.11977515432983088,0.08000289898421559,-0.006363108946106178,-0.01744627554226572,0.00034347812560039015,-0.22777028239839964,0.11953426183778953,0.08918999936068081
-0.01117010721276371,0.04258603374866164,0.09843656981248018,9.970094166666666,-0.48216029166666663,-3.0318892916666664,-0.0022852273309218775,0.02491002979379149,0.0816240698472582,-0.022406108790600936,0.11977515432983088,0.08000289898421559,-0.009755834576431624,0.0025247802282644923,0.005258323866884418,0.43418523991639496,0.00528062957149256,-0.28228509655894085
0.009075712110370514,0.03769911184307752,0.0879645943005142,9.095667875,-0.4903325,-2.476179125,-0.0022852273309218775,0.02491002979379149,0.0816240698472582,-0.022406108790600936,0.11977515432983088,0.08000289898421559,-0.008516989574343834,0.015870458095180735,0.0047376784162556414,-0.23583651625934327,0.07873751506148428,0.08519141945748972
0.02583087292951608,0.006283185307179587,0.07888888219014369,9.561483749999999,-0.6456044583333332,-2.655967708333333,-0.0022852273309218775,0.02491002979379149,0.0816240698472582,-0.022406108790600936,0.11977515432983088,0.08000289898421559,-0.0048845659954766885,-0.009940353386027107,0.0037038547541875548,0.029518424238919067,-0.30941052285091775,0.027740242331285664
0.03560471674068433,0.02583087292951608,0.07120943348136866,9.496106083333332,-0.024516625,-2.7213453750000003,-0.0022852273309218775,0.02491002979379149,0.0816240698472582,-0.022406108790600936,0.11977515432983088,0.08000289898421559,0.0007210403600838911,0.006722086075222748,-0.01767579651683722,0.139999436456469,-0.24839130863913564,-0.037460417475490115
0.033510321638291124,0.012566370614359173,0.10681415022205297,9.210078791666666,0.4739880833333333,-2.655967708333333,-0.0022852273309218775,0.02491002979379149,0.0816240698472582,-0.022406108790600936,0.11977515432983088,0.08000289898421559,0.010256334574369856,-0.007000111391349571,-0.007904997930611236,-0.3951678564232692,0.028860774834260673,0.21169998069859744
0.013264502315156905,0.02652900463031381,0.12217304763960307,9.994610791666668,0.416782625,-3.0890947499999997,-0.0022852273309218775,0.02491002979379149,0.0816240698472582,-0.022406108790600936,0.11977515432983088,0.08000289898421559,0.014401657747406716,-0.007847535251213629,0.009614193470676002,0.17212158173307368,0.23943098574464752,-1.9114417815594702
-0.016057029118347832,0.039095375244672985,0.10402162341886204,9.079323458333333,0.2778550833333333,-2.476179125,-0.0022852273309218775,0.02491002979379149,0.0816240698472582,-0.022406108790600936,0.11977515432983088,0.08000289898421559,0.004325677901053228,0.011933746318418625,0.006542857824716958,-0.1909644481386465,0.24231779189862737,-0.025008086033484773
-0.025132741228718346,0.0153588974175501,0.09075712110370514,9.455245041666666,-0.20430520833333332,-2.435318083333333,-0.0022852273309218775,0.02491002979379149,0.0816240698472582,-0.022406108790600936,0.11977515432983088,0.08000289898421559,0.0019903470463112755,-0.005007518124436642,0.01090552516476125,-0.06842634100988451,0.009690507203167074,0.06464834680397727
-0.028623399732707,0.025132741228718346,0.06911503837897544,9.586000375,-0.220649625,-2.574245625,-0.0022852273309218775,0.02491002979379149,0.0816240698472582,-0.022406108790600936,0.11977515432983088,0.08000289898421559,-0.005656875345836114,0.008586766128069792,-0.005904582981850683,0.33611690200239847,-0.12512700122363546,-0.0743817838375972
-0.017453292519943295,0.008377580409572781,0.08098327729253688,8.907707083333333,0.032688833333333334,-2.435318083333333,-0.0022852273309218775,0.02491002979379149,0.0816240698472582,-0.022406108790600936,0.11977515432983088,0.08000289898421559,-0.009278515460263346,-0.002623886846512169,-0.008887615998136051,-0.33820457847704566,0.08688790889436047,0.1705677460341652
0.0006981317007977319,0.013264502315156905,0.0991347015132779,9.577828166666666,-0.13892754166666665,-2.7867230416666664,-0.0022852273309218775,0.02491002979379149,0.0816240698472582,-0.022406108790600936,0.11977515432983088,0.08000289898421559,-0.0005412729209858804,-0.00818661187981597,0.012270969423136902,0.09920376076627245,0.08710523947004165,-0.1927513553790228
0.0020943951023931952,0.030019663134302467,0.0747000919853573,9.373522958333332,-0.3105439166666667,-2.4108014583333333,-0.0022852273309218775,0.02491002979379149,0.0816240698472582,-0.022406108790600936,0.11977515432983088,0.08000289898421559,-0.00489083998117034,0.006688815864864744,0.004599996093282446,-0.011117379512294186,-0.010846158651509674,0.12188075861582892
0.011868238913561441,0.016755160819145562,0.06562437987498679,9.389867375,-0.2860272916666666,-2.6641399166666666,-0.0022852273309218775,0.02491002979379149,0.0816240698472582,-0.022406108790600936,0.11977515432983088,0.08000289898421559,-0.0039521347131345795,-0.0013920460925492943,0.007847514884574431,-0.003082839575031263,-0.014477546901195206,-0.062071776340572524
0.019547687622336492,0.019547687622336492,0.04956735075663895,9.389867375,-0.2533384583333333,-2.549729,-0.0022852273309218775,0.02491002979379149,0.0816240698472582,-0.022406108790600936,0.11977515432983088,0.08000289898421559,0.0011428543951719466,-0.006487259486641067,-0.005565393090100294,-0.01104775447288076,-0.2434567553973105,0.0402447532563484
0.017453292519943295,0.032114058236695664,0.06073745796940267,9.406211791666665,0.23699404166666665,-2.6396232916666666,-0.0022852273309218775,0.02491002979379149,0.0816240698472582,-0.022406108790600936,0.11977515432983088,0.08000289898421559,0.0042137316127717605,0.0019412331366642599,-0.017060520894177804,-0.02347226849232808,-0.21936746086395026,0.12217599860837863
0.009075712110370514,0.028623399732707,0.09564404300928926,9.447072833333333,0.6782932916666666,-2.8929617499999996,-0.0022852273309218775,0.02491002979379149,0.0816240698472582,-0.022406108790600936,0.11977515432983088,0.08000289898421559,0.012080963200844104,-0.009689641915572221,0.005672151458883977,-0.3163141494604714,0.331603739260557,-1.6254465307639576
-0.017453292519943295,0.03839724354387525,0.09704030641088471,9.5124505,0.318716125,-2.803067458333333,-0.0022852273309218775,0.02491002979379149,0.0816240698472582,-0.022406108790600936,0.11977515432983088,0.08000289898421559,0.01125932640558281,-0.0019279164059926362,0.01159088892891637,0.0012534094433998822,0.27924120465989527,0.015900403938936745
-0.039793506945470715,0.04258603374866164,0.07330382858376185,9.504278291666665,-0.23699404166666665,-2.8439284999999996,-0.0022852273309218775,0.02491002979379149,0.0816240698472582,-0.022406108790600936,0.11977515432983088,0.08000289898421559,-0.0002043398560172281,0.006131506952017494,0.004646556946136033,0.20550792028270307,0.09986708260945763,-0.17191857446053893
-0.039793506945470715,0.030019663134302467,0.06422811647339133,9.087495666666666,-0.43312704166666666,-2.5088679583333335,-0.0022852273309218775,0.02491002979379149,0.0816240698472582,-0.022406108790600936,0.11977515432983088,0.08000289898421559,-0.007415326355105534,0.005104932656925756,0.002513805099449754,-0.2194776808663478,0.07558227710003983,0.0972666769934803
-0.025132741228718346,0.02024581932313422,0.059341194567807204,9.520622708333333,-0.5802267916666666,-2.7131731666666665,-0.0022852273309218775,0.02491002979379149,0.0816240698472582,-0.022406108790600936,0.11977515432983088,0.08000289898421559,-0.013447436977788269,-0.005591031208734662,-0.007568082012756248,0.09089498846566892,-0.15772522119433208,-0.020999968257151592
0.0013962634015954637,0.031415926535897934,0.0747000919853573,9.332661916666666,-0.26151066666666667,-2.680484333333333,-0.0022852273309218775,0.02491002979379149,0.0816240698472582,-0.022406108790600936,0.11977515432983088,0.08000289898421559,-0.012285317987757158,0.00838638954820458,-0.019614308808446865,0.09923441527267103,-0.03173810471672514,-0.012929002588705815
0.02652900463031381,0.014660765716752367,0.11379546723003027,9.128356708333332,-0.196133,-2.6641399166666666,-0.0022852273309218775,0.02491002979379149,0.0816240698472582,-0.022406108790600936,0.11977515432983088,0.08000289898421559,0.0037032098605450825,-0.003507621973471839,0.008440518185774732,-0.2277903682571984,0.02914558779292831,0.10967583626905758
0.019547687622336492,0.021642082724729686,0.09704030641088471,9.577828166666666,-0.2533384583333333,-2.8929617499999996,-0.0022852273309218775,0.02491002979379149,0.0816240698472582,-0.022406108790600936,0.11977515432983088,0.08000289898421559,0.006572335647949225,-0.0019134813338376484,0.014332820408721914,0.03382586053102865,-0.006934258170784474,-0.1069393816521632
0.005585053606381855,0.02583087292951608,0.06841690667817772,9.504278291666665,-0.23699404166666665,-2.6886565416666666,-0.0022852273309218775,0.02491002979379149,0.0816240698472582,-0.022406108790600936,0.11977515432983088,0.08000289898421559,-0.0017745467055947808,0.01017260138400061,-0.005072697275219079,0.13993793139882568,-0.09663983729161318,-0.029527676632876164
0.009075712110370514,0.005585053606381855,0.07888888219014369,9.218250999999999,-0.04086104166666667,-2.6396232916666666,-0.0022852273309218775,0.02491002979379149,0.0816240698472582,-0.022406108790600936,0.11977515432983088,0.08000289898421559,0.00662808095244392,-0.007002002224041345,0.005586558030321676,-0.03177244960102093,-0.051568782173166156,0.023745302279083537
-0.0041887902047863905,0.019547687622336492,0.06771877497737998,9.275456458333332,0.06537766666666667,-2.69682875,-0.0022852273309218775,0.02491002979379149,0.0816240698472582,-0.022406108790600936,0.11977515432983088,0.08000289898421559,0.0016913638129868991,-0.00937908507194638,-0.008103789787634496,-0.40767000203022774,0.17316726914290392,-1.5174743519956226
-0.009773843811168246,0.030019663134302467,0.09634217471008698,9.536967125,0.14709974999999997,-2.8766173333333334,-0.0022852273309218775,0.02491002979379149,0.0816240698472582,-0.022406108790600936,0.11977515432983088,0.08000289898421559,0.000698634296167098,0.0015526919708643305,-0.015212764059343093,0.07453895125423123,0.03746023721474684,-0.09027689447233585
-0.01117010721276371,0.02722713633111154,0.12636183784438945,9.381695166666667,0.07354987499999999,-2.705000958333333,-0.0022852273309218775,0.02491002979379149,0.0816240698472582,-0.022406108790600936,0.11977515432983088,0.08000289898421559,0.004367483921563167,-0.0036361319897221843,0.008137731419227783,-0.0028852013721327495,0.14356618241843175,-0.0660452731270929
-0.02024581932313422,0.03490658503988659,0.11030480872604163,9.381695166666667,-0.21247741666666667,-2.582417833333333,-0.0022852273309218775,0.02491002979379149,0.0816240698472582,-0.022406108790600936,0.11977515432983088,0.08000289898421559,0.0014823624947732932,0.0031931227156832076,0.018930328705260534,-0.002985109853146717,0.11145862299622362,-0.04131288415830037
-0.023038346126325153,0.027925268031909273,0.07260569688296412,9.381695166666667,-0.43312704166666666,-2.5088679583333335,-0.0022852273309218775,0.02491002979379149,0.0816240698472582,-0.022406108790600936,0.11977515432983088,0.08000289898421559,-0.010356119994646102,0.003186330681620718,0.0024217507703346805,0.05015039297687313,0.01803919100666471,-0.004825002473223885
-0.0020943951023931952,0.021642082724729686,0.06771877497737998,9.275456458333332,-0.465815875,-2.5088679583333335,-0.0022852273309218775,0.02491002979379149,0.0816240698472582,-0.022406108790600936,0.11977515432983088,0.08000289898421559,-0.007839560992237867,0.003987126666522385,9.585984917685797e-06,-0.10118365175802345,-0.1333127930436071,0.1505019387092997
0.013264502315156905,0.013962634015954637,0.06771877497737998,9.471589458333332,-0.196133,-2.8194118749999997,-0.0022852273309218775,0.02491002979379149,0.0816240698472582,-0.022406108790600936,0.11977515432983088,0.08000289898421559,-0.005934801282251337,-0.006716278442928088,-0.012720745658646724,-0.11745848153165311,-0.1172133645559089,0.05650537074908191
0.025132741228718346,0.02722713633111154,0.09285151620609833,9.700411291666665,0.04086104166666667,-2.941995,-0.0022852273309218775,0.02491002979379149,0.0816240698472582,-0.022406108790600936,0.11977515432983088,0.08000289898421559,-0.0007151548803996388,-0.009945644535430122,-0.010061978569608056,0.20564308138700707,-0.20791596701694004,-0.04952632414631966
0.02652900463031381,0.047472955654245766,0.11309733552923257,9.283628666666665,0.45764366666666667,-2.852100708333333,-0.0022852273309218775,0.02491002979379149,0.0816240698472582,-0.022406108790600936,0.11977515432983088,0.08000289898421559,0.011624688866243736,0.00786086376754741,0.00899591685573296,0.12371189505955327,0.06608573037684483,-0.21262084537420908
0.003490658503988659,0.031415926535897934,0.09564404300928926,9.030290208333332,0.32688833333333334,-2.435318083333333,-0.0022852273309218775,0.02491002979379149,0.0816240698472582,-0.022406108790600936,0.11977515432983088,0.08000289898421559,0.010330821339128802,0.013015326245627063,0.013390247293840212,-0.3380825938319579,0.1280102530309896,0.1340212503434207
-0.017453292519943295,0.005585053606381855,0.06911503837897544,9.700411291666665,0.07354987499999999,-2.7131731666666665,-0.0022852273309218775,0.02491002979379149,0.0816240698472582,-0.022406108790600936,0.11977515432983088,0.08000289898421559,0.002773039311549368,-0.01518497240950166,0.012172591486568652,-0.24822351857090522,0.2184765750407791,-1.609765444912061
-0.02234021442552742,0.02722713633111154,0.05864306286700947,9.594172583333334,-0.016344416666666667,-2.680484333333333,-0.0022852273309218775,0.02491002979379149,0.0816240698472582,-0.022406108790600936,0.11977515432983088,0.08000289898421559,0.002955274841078146,0.004697840884468768,-0.00497723268998656,0.22992374487612133,-0.006276604563209723,-0.05373657379357278
-0.027925268031909273,0.01815142422074103,0.06841690667817772,9.128356708333332,0.0,-2.582417833333333,-0.0022852273309218775,0.02491002979379149,0.0816240698472582,-0.022406108790600936,0.11977515432983088,0.08000289898421559,-0.004895738722507603,0.003266799488228579,-0.012604439540626438,-0.23991461493807908,0.05857740385813773,0.0971675018201492
-0.01815142422074103,0.01117010721276371,0.0942477796076938,9.602344791666665,-0.11441091666666667,-2.7867230416666664,-0.0022852273309218775,0.02491002979379149,0.0816240698472582,-0.022406108790600936,0.11977515432983088,0.08000289898421559,-0.008790513560622524,-0.016442103462003876,-0.006593971899158133,-0.05615707737395792,0.04600623285242197,-0.0537492767521195
-0.0006981317007977319,0.04468042885105484,0.1075122819228507,9.7085835,-0.20430520833333332,-2.6886565416666666,-0.0022852273309218775,0.02491002979379149,0.0816240698472582,-0.022406108790600936,0.11977515432983088,0.08000289898421559,-0.005284450944135767,0.0006606095315859618,0.008304276527627653,0.27891129837132567,0.00904185617064302,-0.16369211836875158
0.010471975511965976,0.04328416544945937,0.09075712110370514,9.144701125,-0.220649625,-2.3699404166666667,-0.0022852273309218775,0.02491002979379149,0.0816240698472582,-0.022406108790600936,0.11977515432983088,0.08000289898421559,-0.0011478507126249243,0.01742666294586629,0.01614937704445213,-0.21531355436326172,-0.023224559528401367,0.13426413635483583
0.012566370614359173,0.008377580409572781,0.05864306286700947,9.569655958333334,-0.17161637500000002,-2.6477955,-0.0022852273309218775,0.02491002979379149,0.0816240698472582,-0.022406108790600936,0.11977515432983088,0.08000289898421559,0.004182389168665529,-0.004063458180201402,0.00897362881126857,-0.027562756331239117,-0.010245639450904417,0.03183711803441519
0.0041887902047863905,0.016755160819145562,0.04049163864626844,9.618689208333333,-0.14709974999999997,-2.7213453750000003,-0.0022852273309218775,0.02491002979379149,0.0816240698472582,-0.022406108790600936,0.11977515432983088,0.08000289898421559,0.0010677089781724793,-0.0037358485375746306,-0.007585742916484327,0.15230302615584962,-0.07156709367578429,0.0074233933124848855
0.0013962634015954637,0.024434609527920613,0.05585053606381855,9.308145291666667,0.0,-2.7458620000000002,-0.0022852273309218775,0.02491002979379149,0.0816240698472582,-0.022406108790600936,0.11977515432983088,0.08000289898421559,0.003590330475358854,0.006687921470419822,-0.014359195585409297,-0.02757780430462535,-0.06367434873363544,0.052284221267529706
-0.005585053606381855,0.010471975511965976,0.08517206749732328,9.357178541666666,0.13075533333333333,-2.8602729166666667,-0.0022852273309218775,0.02491002979379149,0.0816240698472582,-0.022406108790600936,0.11977515432983088,0.08000289898421559,-0.0012374683935648292,-0.018509411365125072,-0.010420972553282821,-0.24005110186623663,0.11134740587168629,0.0077118109556313305
-0.0027925268031909274,0.04817108735504349,0.1054178868204575,9.831166624999998,-0.08989429166666667,-2.8847895416666667,-0.0022852273309218775,0.02491002979379149,0.0816240698472582,-0.022406108790600936,0.11977515432983088,0.08000289898421559,-0.004536161625050653,-0.009572442632729883,0.0030018490006971914,0.21637510273858104,0.17286279513692193,-1.8006318077318813
-0.0013962634015954637,0.047472955654245766,0.0991347015132779,8.956740333333332,-0.08172208333333333,-2.476179125,-0.0022852273309218775,0.02491002979379149,0.0816240698472582,-0.022406108790600936,0.11977515432983088,0.08000289898421559,0.002146733474908587,0.01825864793220986,0.003933456421376887,0.001042040663224122,-0.02760901125260029,-0.03324486593568248
-0.005585053606381855,0.01117010721276371,0.09145525280450287,8.948568125,-0.024516625,-2.4189736666666666,-0.0022852273309218775,0.02491002979379149,0.0816240698472582,-0.022406108790600936,0.11977515432983088,0.08000289898421559,0.005648261464832691,0.0027393437440169912,0.013438158976476567,-0.3137420472354216,0.14870542798663047,0.10530775587420664
-0.016755160819145562,0.005585053606381855,0.06422811647339133,9.569655958333334,-0.318716125,-2.6396232916666666,-0.0022852273309218775,0.02491002979379149,0.0816240698472582,-0.022406108790600936,0.11977515432983088,0.08000289898421559,-0.0012373381073424365,-0.004603801320619617,-0.000947528868644963,0.025576984903558024,-0.018791577366018372,0.10916182455003695
-0.013962634015954637,0.014660765716752367,0.06632251157578452,9.5124505,-0.2778550833333333,-2.8684451249999996,-0.0022852273309218775,0.02491002979379149,0.0816240698472582,-0.022406108790600936,0.11977515432983088,0.08000289898421559,-0.0057444788619464325,-0.005170886597490189,-0.009834597004622513,0.1563934327754489,-0.05162009939234583,-0.08240583826200124
-0.0027925268031909274,0.025132741228718346,0.08587019919812101,9.193734375,-0.17161637500000002,-2.7131731666666665,-0.0022852273309218775,0.02491002979379149,0.0816240698472582,-0.022406108790600936,0.11977515432983088,0.08000289898421559,-0.006135410536087638,0.001103742373873776,-0.012120106026902328,-0.28083337542522596,0.07851350997452397,0.1219181803858664
0.009773843811168246,0.023736477827122883,0.11030480872604163,9.749444541666666,-0.32688833333333334,-2.966511625,-0.0022852273309218775,0.02491002979379149,0.0816240698472582,-0.022406108790600936,0.11977515432983088,0.08000289898421559,-0.004906343140919633,-0.011886202721417202,0.00330939123693283,0.20537169515365009,-0.12609135691631443,-0.19659122470034837
0.01884955592153876,0.04677482395344803,0.10402162341886204,9.332661916666666,-0.07354987499999999,-2.582417833333333,-0.0022852273309218775,0.02491002979379149,0.0816240698472582,-0.022406108790600936,0.11977515432983088,0.08000289898421559,-0.001211544233125333,0.007803155361191574,0.006039876294317464,0.058395846522045915,-0.14212099777811246,-0.012554766836214992
0.021642082724729686,0.031415926535897934,0.09215338450530061,9.210078791666666,0.21247741666666667,-2.5660734166666663,-0.0022852273309218775,0.02491002979379149,0.0816240698472582,-0.022406108790600936,0.11977515432983088,0.08000289898421559,0.007445595114699451,0.009856484855762031,0.004467206430720984,0.0010615442843543194,0.029566895679475822,-0.04562300530277212
0.006981317007977318,0.011868238913561441,0.08307767239493008,9.201906583333333,0.15527195833333335,-2.4843513333333336,-0.0022852273309218775,0.02491002979379149,0.0816240698472582,-0.022406108790600936,0.11977515432983088,0.08000289898421559,0.011287333891078145,0.0014487701395158293,0.008859706657401139,-0.28502991243678993,0.08340168025125491,0.1951870847660922
-0.016057029118347832,0.009075712110370514,0.06562437987498679,9.765788958333333,-0.008172208333333333,-2.8847895416666667,-0.0022852273309218775,0.02491002979379149,0.0816240698472582,-0.022406108790600936,0.11977515432983088,0.08000289898421559,0.00308065753173193,-0.01282435277531427,0.002836193959428292,-0.27195983368573745,0.11056649191265525,-1.4990052704211478
-0.020943951023931952,0.030019663134302467,0.0767944870877505,9.700411291666665,0.06537766666666667,-2.941995,-0.0022852273309218775,0.02491002979379149,0.0816240698472582,-0.022406108790600936,0.11977515432983088,0.08000289898421559,-0.00026434000676218636,-0.0062230260055581525,-0.009291203294130999,0.2381367479501079,0.05868215067243366,-0.18006673070906698
-0.02024581932313422,0.041887902047863905,0.09564404300928926,9.218250999999999,-0.04903325,-2.5905900416666663,-0.0022852273309218775,0.02491002979379149,0.0816240698472582,-0.022406108790600936,0.11977515432983088,0.08000289898421559,-0.007613613737067938,0.006805284621364856,-0.0036237959310627312,-0.1172703659001982,0.13572595064133453,0.0812750755768821
-0.005585053606381855,0.028623399732707,0.10262536001726656,9.447072833333333,-0.318716125,-2.7622064166666664,-0.0022852273309218775,0.02491002979379149,0.0816240698472582,-0.022406108790600936,0.11977515432983088,0.08000289898421559,-0.007404136554734099,-0.0016597550455224735,0.005864957111555503,-0.015236459610443526,-0.023612230367573497,-0.07409267720001488
0.009773843811168246,0.032114058236695664,0.09145525280450287,9.471589458333332,-0.269682875,-2.623278875,-0.0022852273309218775,0.02491002979379149,0.0816240698472582,-0.022406108790600936,0.11977515432983088,0.08000289898421559,-0.002583028039784119,-0.0032134511799862537,0.005838639632970494,0.12771160060300782,-0.17455423146670487,-0.06987521985631218
0.014660765716752367,0.03839724354387525,0.07958701389094143,9.210078791666666,0.08172208333333333,-2.4925235416666665,-0.0022852273309218775,0.02491002979379149,0.0816240698472582,-0.022406108790600936,0.11977515432983088,0.08000289898421559,0.005012924192617713,0.018524234343796086,0.006410891347388019,0.025602284209404486,0.034088511587878755,0.0770089990493245
0.0041887902047863905,0.0013962634015954637,0.06702064327658225,9.152873333333332,0.016344416666666667,-2.655967708333333,-0.0022852273309218775,0.02491002979379149,0.0816240698472582,-0.022406108790600936,0.11977515432983088,0.08000289898421559,0.004574164799940336,-5.7475330796924617e-05,0.005297842926534461,-0.2564487743404415,0.04666274215451188,0.07226156588046262
-0.004886921905584123,0.0013962634015954637,0.056548667764616284,9.659550249999999,-0.07354987499999999,-2.811239666666667,-0.0022852273309218775,0.02491002979379149,0.0816240698472582,-0.022406108790600936,0.11977515432983088,0.08000289898421559,0.00366108076341406,-0.01615031988389004,-0.006811358436089195,0.01333077638749241,-0.030830856579692575,0.035897615691335094
-0.011868238913561441,0.03420845333908886,0.06981317007977318,9.626861416666666,-0.008172208333333333,-2.8929617499999996,-0.0022852273309218775,0.02491002979379149,0.0816240698472582,-0.022406108790600936,0.11977515432983088,0.08000289898421559,-0.002529904282007406,0.0015347351381904066,-0.013891353954051245,0.274941329362518,-0.023257833793796187,-0.20879699670026416
-0.006981317007977318,0.031415926535897934,0.09773843811168245,9.07115125,0.04086104166666667,-2.4843513333333336,-0.0022852273309218775,0.02491002979379149,0.0816240698472582,-0.022406108790600936,0.11977515432983088,0.08000289898421559,0.001176219797829553,0.0043796355678768105,-0.0015129920751802348,-0.24412956613975326,0.049970909741336424,0.11382015313559199
-0.009773843811168246,0.02234021442552742,0.10122909661567112,9.553311541666666,-0.057205458333333334,-2.7213453750000003,-0.0022852273309218775,0.02491002979379149,0.0816240698472582,-0.022406108790600936,0.11977515432983088,0.08000289898421559,-0.007751266734616178,-0.014297286016622189,0.0059645587917987915,-0.2047074278891866,0.1819496922211173,-1.6412636125003779
-0.0006981317007977319,0.03630284844148206,0.09285151620609833,9.545139333333333,-0.08172208333333333,-2.606934458333333,-0.0022852273309218775,0.02491002979379149,0.0816240698472582,-0.022406108790600936,0.11977515432983088,0.08000289898421559,0.00042215925007419634,0.003141647730212484,0.005405957836176054,0.27487131147529364,-0.019212066760857047,-0.12709596081232835
-0.0020943951023931952,0.030019663134302467,0.08168140899333462,8.989429166666666,-0.04086104166666667,-2.3617682083333333,-0.0022852273309218775,0.02491002979379149,0.0816240698472582,-0.022406108790600936,0.11977515432983088,0.08000289898421559,0.0016005290294416551,0.01367483470112865,0.0055566931129019045,-0.28492426064451293,0.058636780759332076,0.1747450617049359
-0.004886921905584123,0.0027925268031909274,0.07051130178057091,9.553311541666666,-0.15527195833333335,-2.7213453750000003,-0.0022852273309218775,0.02491002979379149,0.0816240698472582,-0.022406108790600936,0.11977515432983088,0.08000289898421559,0.002752182623478982,-0.0047569021794439835,0.003827916371373337,-0.03988256007603,0.06306755325711795,0.019405562495358904
-0.010471975511965976,0.012566370614359173,0.06283185307179587,9.626861416666666,-0.2778550833333333,-2.7703786249999998,-0.0022852273309218775,0.02491002979379149,0.0816240698472582,-0.022406108790600936,0.11977515432983088,0.08000289898421559,-0.0030195585596045865,-0.010899181964089056,-0.0018006001064993528,-0.015289447304011612,0.013989371611993307,0.08921134571612717
-0.004886921905584123,0.03420845333908886,0.06702064327658225,9.651378041666666,-0.3023717083333333,-2.9583394166666666,-0.0022852273309218775,0.02491002979379149,0.0816240698472582,-0.022406108790600936,0.11977515432983088,0.08000289898421559,-0.005346242010930527,0.00045359266341711704,-0.013069711069319116,0.27488618248021307,-0.09274596279970775,-0.16384428863458594
0.006283185307179587,0.032812189937493394,0.09354964790689606,9.095667875,-0.11441091666666667,-2.6396232916666666,-0.0022852273309218775,0.02491002979379149,0.0816240698472582,-0.022406108790600936,0.11977515432983088,0.08000289898421559,-0.0024979168151118064,0.0017209136955680239,-0.0039774262199923326,-0.22767800123902163,0.02130741615395878,0.05273400719979722
0.01117010721276371,0.030019663134302467,0.10122909661567112,9.545139333333333,-0.15527195833333335,-2.754034208333333,-0.0022852273309218775,0.02491002979379149,0.0816240698472582,-0.022406108790600936,0.11977515432983088,0.08000289898421559,-0.0017388591358174462,-0.0044621441852110135,0.005123927730001238,0.04615809260583645,-0.1013284286594917,-0.0332324482755509
0.014660765716752367,0.03839724354387525,0.09075712110370514,9.447072833333333,0.04903325,-2.69682875,-0.0022852273309218775,0.02491002979379149,0.0816240698472582,-0.022406108790600936,0.11977515432983088,0.08000289898421559,0.0046801021156243055,0.008483782401382135,0.005377572963948635,0.1563671485794241,-0.019146942138429705,-0.10672742861215927
0.005585053606381855,0.02234021442552742,0.08028514559173915,9.128356708333332,0.08989429166666667,-2.4925235416666665,-0.0022852273309218775,0.02491002979379149,0.0816240698472582,-0.022406108790600936,0.11977515432983088,0.08000289898421559,0.011801340681703009,0.0036581416124280407,0.006110427271918974,-0.17059377840350837,0.07496156371779687,0.14225844385068034
-0.01815142422074103,0.014660765716752367,0.06841690667817772,9.46341725,-0.057205458333333334,-2.7867230416666664,-0.0022852273309218775,0.02491002979379149,0.0816240698472582,-0.022406108790600936,0.11977515432983088,0.08000289898421559,0.0009784795730905425,-0.002127951127191803,0.003051744362824997,-0.17798686920396348,0.21868190414945382,-1.5541982724671966
-0.02024581932313422,0.008377580409572781,0.0767944870877505,9.414383999999998,-0.16344416666666667,-2.7458620000000002,-0.0022852273309218775,0.02491002979379149,0.0816240698472582,-0.022406108790600936,0.11977515432983088,0.08000289898421559,-0.003107308489549714,-0.013259042502826317,-0.0071313917878100975,-0.11328931846641278,-0.0027308627318593237,0.04408555915520648
-0.013962634015954637,0.03490658503988659,0.09075712110370514,9.635033625,-0.15527195833333335,-2.8439284999999996,-0.0022852273309218775,0.02491002979379149,0.0816240698472582,-0.022406108790600936,0.11977515432983088,0.08000289898421559,-0.003155028089600293,0.0036117978582069763,-0.00542192605257136,0.27497739800111365,0.03779318262456982,-0.1352598054712876
-0.00767944870877505,0.027925268031909273,0.10192722831646883,9.079323458333333,-0.22882183333333334,-2.582417833333333,-0.0022852273309218775,0.02491002979379149,0.0816240698472582,-0.022406108790600936,0.11977515432983088,0.08000289898421559,-0.009800354216766019,0.0018641556620639353,-0.001647610387012936,-0.22786737791166492,0.05793142988689824,0.07291500588091337
0.011868238913561441,0.023736477827122883,0.1054178868204575,9.528794916666666,-0.34323275000000003,-2.7376897916666665,-0.0022852273309218775,0.02491002979379149,0.0816240698472582,-0.022406108790600936,0.11977515432983088,0.08000289898421559,-0.005494689837272325,-0.004958608960799824,0.003334860015821153,0.04615108523700924,-0.1421904615561262,-0.04542366709034146
0.023038346126325153,0.03420845333908886,0.09843656981248018,9.430728416666666,-0.057205458333333334,-2.655967708333333,-0.0022852273309218775,0.02491002979379149,0.0816240698472582,-0.022406108790600936,0.11977515432983088,0.08000289898421559,0.0034272947469361488,0.0049399326219793935,0.007222530155649385,0.13587050202090406,-0.0931452097329632,-0.09040931586799515
0.016057029118347832,0.024434609527920613,0.08447393579652555,9.152873333333332,0.13075533333333333,-2.4843513333333336,-0.0022852273309218775,0.02491002979379149,0.0816240698472582,-0.022406108790600936,0.11977515432983088,0.08000289898421559,0.008944751858544564,0.006201173759243203,0.006673842985314208,-0.14999351234653605,0.03418339430074618,0.11769625963127577
-0.0013962634015954637,0.011868238913561441,0.07120943348136866,9.447072833333333,0.06537766666666667,-2.729517583333333,-0.0022852273309218775,0.02491002979379149,0.0816240698472582,-0.022406108790600936,0.11977515432983088,0.08000289898421559,0.004673158231002907,0.0006204396667087049,-0.004676253523819695,-0.06449843476739325,0.030048228180555938,0.03167388812235347
-0.01117010721276371,0.010471975511965976,0.08028514559173915,9.569655958333334,0.008172208333333333,-2.803067458333333,-0.0022852273309218775,0.02491002979379149,0.0816240698472582,-0.022406108790600936,0.11977515432983088,0.08000289898421559,0.0026293374814901167,-0.01600646184321311,-0.0026061126253738164,0.03373427396697787,0.038077088726287,-0.06586902489152967
-0.016755160819145562,0.04258603374866164,0.08587019919812101,9.496106083333332,-0.06537766666666667,-2.680484333333333,-0.0022852273309218775,0.02491002979379149,0.0816240698472582,-0.022406108790600936,0.11977515432983088,0.08000289898421559,0.0004814490827869588,0.011806751922688622,-0.0029011645805141427,0.14427311646503563,0.02989513924010903,-0.049738794358817374
-0.017453292519943295,0.019547687622336492,0.09145525280450287,9.201906583333333,-0.122583125,-2.5905900416666663,-0.0022852273309218775,0.02491002979379149,0.0816240698472582,-0.022406108790600936,0.11977515432983088,0.08000289898421559,-0.012185335515047592,-0.016865262079786697,0.0011772515863639043,-0.46210421571430776,0.22417373969118462,-1.4725726536387362
0.0013962634015954637,0.033510321638291124,0.09285151620609833,9.724927916666667,-0.22882183333333334,-2.7131731666666665,-0.0022852273309218775,0.02491002979379149,0.0816240698472582,-0.022406108790600936,0.11977515432983088,0.08000289898421559,-0.0013065240734240042,-0.004163621501756928,0.0070734801950642304,0.16462290370316365,-0.05198656448321564,-0.03719382830805009
0.0041887902047863905,0.041887902047863905,0.07819075048934597,9.389867375,-0.122583125,-2.6477955,-0.0022852273309218775,0.02491002979379149,0.0816240698472582,-0.022406108790600936,0.11977515432983088,0.08000289898421559,0.0005943629435269185,0.01275806098404318,0.006220395539217891,0.20543035475999455,-0.051604128055221424,-0.10254878922909243
0.0027925268031909274,0.016057029118347832,0.06632251157578452,8.97308475,-0.016344416666666667,-2.4516625,-0.0022852273309218775,0.02491002979379149,0.0816240698472582,-0.022406108790600936,0.11977515432983088,0.08000289898421559,0.002792497285968404,0.005471118779792915,0.0003896380373540023,-0.32167698495279123,0.022105034992087966,0.1011525020001539
-0.0027925268031909274,0.005585053606381855,0.06562437987498679,9.610517,-0.057205458333333334,-2.6641399166666666,-0.0022852273309218775,0.02491002979379149,0.0816240698472582,-0.022406108790600936,0.11977515432983088,0.08000289898421559,0.0021919536992011817,-0.003619081730827132,-0.0015560715407447656,0.025363215007178818,0.0016662077205130178,0.007051875228819316
-0.006981317007977318,0.012566370614359173,0.06841690667817772,9.553311541666666,-0.057205458333333334,-2.6886565416666666,-0.0022852273309218775,0.02491002979379149,0.0816240698472582,-0.022406108790600936,0.11977515432983088,0.08000289898421559,0.0005861904815383857,-0.008700480773864545,-0.008218954001245303,0.001105598714649053,0.07104423678303305,0.09325143038664656
-0.008377580409572781,0.030019663134302467,0.08517206749732328,9.545139333333333,-0.196133,-2.8847895416666667,-0.0022852273309218775,0.02491002979379149,0.0816240698472582,-0.022406108790600936,0.11977515432983088,0.08000289898421559,-0.0010321262818682674,0.005045630174873386,0.0008663021410338028,0.12795205303922136,-0.047748608850610635,-0.11083991828144929
-0.006283185307179587,0.02024581932313422,0.08377580409572781,9.283628666666665,-0.0980665,-2.672312125,-0.0022852273309218775,0.02491002979379149,0.0816240698472582,-0.022406108790600936,0.11977515432983088,0.08000289898421559,-0.003499453622680209,-0.007496324717472452,-0.004477936443193916,-0.2074015550058371,0.017392314926796413,0.02388595981093822
0.0006981317007977319,0.03490658503988659,0.09215338450530061,9.692239083333332,-0.13075533333333333,-2.729517583333333,-0.0022852273309218775,0.02491002979379149,0.0816240698472582,-0.022406108790600936,0.11977515432983088,0.08000289898421559,-0.0031996407233503676,2.2667141037298283e-05,-0.0005998113237724994,0.11976301262661496,-0.06433338712036003,-0.01677207503785981
0.006981317007977318,0.03490658503988659,0.09354964790689606,9.447072833333333,0.0,-2.705000958333333,-0.0022852273309218775,0.02491002979379149,0.0816240698472582,-0.022406108790600936,0.11977515432983088,0.08000289898421559,0.0016992667291880273,0.0009334260950315307,0.005261503943407978,0.16032081005205304,0.013450479515726,-0.10664784515856426
0.003490658503988659,0.033510321638291124,0.08377580409572781,9.1201845,-0.024516625,-2.5006957499999998,-0.0022852273309218775,0.02491002979379149,0.0816240698472582,-0.022406108790600936,0.11977515432983088,0.08000289898421559,0.0019685759392657418,0.0026709942289721423,0.010385367820036557,-0.2739559990140101,0.21850060941083424,-1.4544501166544743
-0.004886921905584123,0.013264502315156905,0.0747000919853573,9.36535075,-0.13075533333333333,-2.6477955,-0.0022852273309218775,0.02491002979379149,0.0816240698472582,-0.022406108790600936,0.11977515432983088,0.08000289898421559,0.0009245726735262535,0.004882681587651987,-0.0054390761347176434,-0.10934373519047348,0.034019291214223264,0.027464846658455333
-0.006981317007977318,0.003490658503988659,0.08587019919812101,9.577828166666666,-0.196133,-2.7131731666666665,-0.0022852273309218775,0.02491002979379149,0.0816240698472582,-0.022406108790600936,0.11977515432983088,0.08000289898421559,-0.0006194225060049475,-0.015788411120996448,0.0022581735763681932,-0.0439417052774418,0.037995508373300554,0.05645192003431607
-0.005585053606381855,0.03490658503988659,0.08098327729253688,9.659550249999999,-0.269682875,-2.8357562916666668,-0.0022852273309218775,0.02491002979379149,0.0816240698472582,-0.022406108790600936,0.11977515432983088,0.08000289898421559,-0.001907423392338076,0.004292839425388447,-0.0025313196111639404,0.2831536718829028,-0.04361983160452297,-0.09438924918033939
-0.0020943951023931952,0.02652900463031381,0.08656833089891874,9.087495666666666,-0.17978858333333333,-2.655967708333333,-0.0022852273309218775,0.02491002979379149,0.0816240698472582,-0.022406108790600936,0.11977515432983088,0.08000289898421559,-0.004129409443216432,0.004201767674559122,-0.0018972081587294769,-0.19911172593148574,-0.04372721035779226,0.09744350887912102
0.006283185307179587,0.01815142422074103,0.09005898940290741,9.479761666666667,-0.08989429166666667,-2.8602729166666667,-0.0022852273309218775,0.02491002979379149,0.0816240698472582,-0.022406108790600936,0.11977515432983088,0.08000289898421559,-0.00232820328200856,-0.006915006345456568,-0.00036943203617449623,-0.06017895094922889,-0.04402983900779414,-0.11114701057744514
0.01117010721276371,0.031415926535897934,0.09145525280450287,9.594172583333334,0.0,-2.6477955,-0.0022852273309218775,0.02491002979379149,0.0816240698472582,-0.022406108790600936,0.11977515432983088,0.08000289898421559,0.0032485363762220164,-0.0014019605797960756,0.004664636509198696,0.25031625918072514,0.009413456903122633,-0.08620137980148536
0.004886921905584123,0.03490658503988659,0.08168140899333462,9.087495666666666,-0.016344416666666667,-2.4843513333333336,-0.0022852273309218775,0.02491002979379149,0.0816240698472582,-0.022406108790600936,0.11977515432983088,0.08000289898421559,0.0034087127703739876,0.010922240218594509,0.001703452692891113,-0.019212984589459466,-0.02337979970559501,0.01157067304332935
-0.0020943951023931952,0.013264502315156905,0.07888888219014369,9.1201845,0.032688833333333334,-2.5170401666666664,-0.0022852273309218775,0.02491002979379149,0.0816240698472582,-0.022406108790600936,0.11977515432983088,0.08000289898421559,0.003899865320790805,0.0005691689107683172,0.00044925881238898834,-0.23608537396944226,0.03825625012559447,0.03599285944836148
-0.009773843811168246,0.011868238913561441,0.07749261878854824,9.586000375,-0.04086104166666667,-2.59876225,-0.0022852273309218775,0.02491002979379149,0.0816240698472582,-0.022406108790600936,0.11977515432983088,0.08000289898421559,0.00013002624304957782,-0.004810435048099614,-0.005468386907460737,-0.023420876221962393,0.08312413672011913,0.07670832395617885
-0.010471975511965976,0.021642082724729686,0.08866272600131193,9.626861416666666,-0.20430520833333332,-2.7622064166666664,-0.0022852273309218775,0.02491002979379149,0.0816240698472582,-0.022406108790600936,0.11977515432983088,0.08000289898421559,0.0010132365001492703,-0.011371237453214902,0.00609820185333141,-0.07468331366672257,0.1385933029098315,-1.5229855543362145
-0.012566370614359173,0.02722713633111154,0.08377580409572781,9.389867375,-0.08989429166666667,-2.655967708333333,-0.0022852273309218775,0.02491002979379149,0.0816240698472582,-0.022406108790600936,0.11977515432983088,0.08000289898421559,-0.004312707841168093,-0.003519427713698211,-0.0017777422616603534,-0.06844225423636222,-0.0028988267671549374,0.07712060602590488
-0.003490658503988659,0.03420845333908886,0.08726646259971647,9.520622708333333,-0.08172208333333333,-2.8194118749999997,-0.0022852273309218775,0.02491002979379149,0.0816240698472582,-0.022406108790600936,0.11977515432983088,0.08000289898421559,-0.006044076558555032,-0.0009262044689435407,-0.003958631447375942,0.08303313053118944,0.021583456294085857,-0.10665343132096229
0.008377580409572781,0.03630284844148206,0.09564404300928926,9.349006333333334,-0.122583125,-2.6151066666666667,-0.0022852273309218775,0.02491002979379149,0.0816240698472582,-0.022406108790600936,0.11977515432983088,0.08000289898421559,-0.0021510566085935685,0.0021257716803023815,0.002352953530227383,0.03379672687324799,-0.039945281009071035,-0.057458236793583875
0.012566370614359173,0.032114058236695664,0.09075712110370514,9.275456458333332,-0.04086104166666667,-2.5088679583333335,-0.0022852273309218775,0.02491002979379149,0.0816240698472582,-0.022406108790600936,0.11977515432983088,0.08000289898421559,0.005649229633443864,0.005295461899053866,0.006670584072702519,0.005115435694482684,-0.06426453381954511,0.027996713930955458
0.0013962634015954637,0.021642082724729686,0.07749261878854824,9.259112041666667,0.08989429166666667,-2.574245625,-0.0022852273309218775,0.02491002979379149,0.0816240698472582,-0.022406108790600936,0.11977515432983088,0.08000289898421559,0.0002833631300728642,0.0018975421499327512,-0.0022553546934497475,-0.043772215521355205,0.034129587470099206,0.0318872921144838
0.0006981317007977319,0.017453292519943295,0.08168140899333462,9.340834124999999,0.024516625,-2.6477955,-0.0022852273309218775,0.02491002979379149,0.0816240698472582,-0.022406108790600936,0.11977515432983088,0.08000289898421559,0.004332105047119607,0.0036365191457184923,-0.0035733628844098683,-0.12978201190048994,0.06656226080977379,0.08904593054585459
-0.008377580409572781,0.010471975511965976,0.08936085770210968,9.594172583333334,-0.10623870833333333,-2.8357562916666668,-0.0022852273309218775,0.02491002979379149,0.0816240698472582,-0.022406108790600936,0.11977515432983088,0.08000289898421559,0.0024027093428230666,-0.007981292090030664,0.004576689905448112,0.021448740223420148,-0.010881241689087419,-0.08253547459645601
-0.013264502315156905,0.02652900463031381,0.08028514559173915,9.545139333333333,-0.08172208333333333,-2.680484333333333,-0.0022852273309218775,0.02491002979379149,0.0816240698472582,-0.022406108790600936,0.11977515432983088,0.08000289898421559,0.0024885957611239327,4.976774868716361e-05,0.0034091549269039297,0.05426552406179119,-0.0025812321372454977,0.06466364070168819
-0.01815142422074103,0.02652900463031381,0.07330382858376185,9.430728416666666,-0.07354987499999999,-2.8194118749999997,-0.0022852273309218775,0.02491002979379149,0.0816240698472582,-0.022406108790600936,0.11977515432983088,0.08000289898421559,-0.008634838600705342,-0.0021381326314780275,-0.007294242919491763,-0.011041786087154443,0.034104807493229715,-0.1026064673567422
-0.0006981317007977319,0.0307177948351002,0.0879645943005142,9.447072833333333,-0.13892754166666665,-2.623278875,-0.0022852273309218775,0.02491002979379149,0.0816240698472582,-0.022406108790600936,0.11977515432983088,0.08000289898421559,-0.00672934222791802,-0.010674304467171325,0.003219075060103319,-0.14883181281974778,0.2237672697052465,-1.4367652040642072
0.006283185307179587,0.033510321638291124,0.09005898940290741,9.46341725,-0.17161637500000002,-2.729517583333333,-0.0022852273309218775,0.02491002979379149,0.0816240698472582,-0.022406108790600936,0.11977515432983088,0.08000289898421559,0.0030822299786760167,0.004417390048189907,0.008325678078672766,0.07056428118774873,-0.05999542210857708,-0.10667064599709024
0.0,0.024434609527920613,0.07400196028455958,9.316317499999998,-0.04903325,-2.5252123749999997,-0.0022852273309218775,0.02491002979379149,0.0816240698472582,-0.022406108790600936,0.11977515432983088,0.08000289898421559,0.0007564896380647407,0.003810504695471542,-0.0002869231862101186,-0.10923619724972668,0.0016147324608708,0.07683003070172649
-0.0013962634015954637,0.016755160819145562,0.07400196028455958,9.528794916666666,-0.04903325,-2.6886565416666666,-0.0022852273309218775,0.02491002979379149,0.0816240698472582,-0.022406108790600936,0.11977515432983088,0.08000289898421559,-0.002697514088855327,-0.003537606396759669,-0.0028659741475052054,0.11946394801396344,0.07493361926640994,-0.0619132593460656
0.003490658503988659,0.024434609527920613,0.08028514559173915,9.283628666666665,-0.196133,-2.574245625,-0.0022852273309218775,0.02491002979379149,0.0816240698472582,-0.022406108790600936,0.11977515432983088,0.08000289898421559,0.0045009783346871305,0.002110187935124944,0.0016822334647441065,-0.060196271105898085,-0.019078735830491494,0.1178020923280362
-0.004886921905584123,0.02024581932313422,0.0767944870877505,9.398039583333333,-0.15527195833333335,-2.8194118749999997,-0.0022852273309218775,0.02491002979379149,0.0816240698472582,-0.022406108790600936,0.11977515432983088,0.08000289898421559,0.004025603990478042,-0.0012728115353345345,0.0016866827885683023,-0.09693426176864708,-0.06789927783370456,-0.021197647566484262
-0.013264502315156905,0.02234021442552742,0.07400196028455958,9.586000375,-0.016344416666666667,-2.7867230416666664,-0.0022852273309218775,0.02491002979379149,0.0816240698472582,-0.022406108790600936,0.11977515432983088,0.08000289898421559,-0.0069193675998955855,-0.005497706750859059,-0.009018583089740415,0.05421395309673884,-0.015212779161653792,-0.04551208927587702
0.0006981317007977319,0.033510321638291124,0.09145525280450287,9.471589458333332,0.016344416666666667,-2.705000958333333,-0.0022852273309218775,0.02491002979379149,0.0816240698472582,-0.022406108790600936,0.11977515432983088,0.08000289898421559,-0.0016518121687031323,0.0003623677807013189,-0.0026561317661423015,0.14011082103413355,0.05825149119715366,-0.08611997967895428
0.0041887902047863905,0.032812189937493394,0.09704030641088471,9.185562166666665,-0.0980665,-2.5415567916666664,-0.0022852273309218775,0.02491002979379149,0.0816240698472582,-0.022406108790600936,0.11977515432983088,0.08000289898421559,0.0031678725865522685,0.004774830935260505,0.003881843999235804,-0.03975486558611048,0.005181492250176555,0.04843685725705731
-0.0020943951023931952,0.023038346126325153,0.08936085770210968,9.259112041666667,-0.10623870833333333,-2.6477955,-0.0022852273309218775,0.02491002979379149,0.0816240698472582,-0.022406108790600936,0.11977515432983088,0.08000289898421559,0.0009231392679859365,0.004107755047232988,0.004199504178658067,-0.06846718625677986,-0.051985005029496274,-0.02933212061540425
-0.0041887902047863905,0.0153588974175501,0.08098327729253688,9.389867375,0.0,-2.59876225,-0.0022852273309218775,0.02491002979379149,0.0816240698472582,-0.022406108790600936,0.11977515432983088,0.08000289898421559,-0.005459406816988855,-0.006395505625992509,-0.0018778825501131473,-0.17539764219589973,0.2675940372614889,-1.4687303021418063
0.004886921905584123,0.0153588974175501,0.0942477796076938,9.479761666666667,-0.11441091666666667,-2.606934458333333,-0.0022852273309218775,0.02491002979379149,0.0816240698472582,-0.022406108790600936,0.11977515432983088,0.08000289898421559,0.00267148861051454,-0.0026539704322965786,0.004081480162071631,0.1072535502900166,0.04997776755844787,0.019648122905751755
0.0,0.02024581932313422,0.08656833089891874,9.259112041666667,-0.21247741666666667,-2.655967708333333,-0.0022852273309218775,0.02491002979379149,0.0816240698472582,-0.022406108790600936,0.11977515432983088,0.08000289898421559,0.002439475634374961,0.002457388119617099,0.005479778960433124,-0.14197629400373601,-0.05986595652326054,0.04418096246716368
-0.004886921905584123,0.016057029118347832,0.07539822368615504,9.536967125,-0.08989429166666667,-2.754034208333333,-0.0022852273309218775,0.02491002979379149,0.0816240698472582,-0.022406108790600936,0.11977515432983088,0.08000289898421559,-0.0010041564997277774,-0.006858610367396489,-0.0030214807225214537,-0.01535741803337394,-0.05991989528765474,0.015666597041971708
-0.0027925268031909274,0.029321531433504733,0.08168140899333462,9.561483749999999,0.032688833333333334,-2.7948952499999997,-0.0022852273309218775,0.02491002979379149,0.0816240698472582,-0.022406108790600936,0.11977515432983088,0.08000289898421559,-0.003070130197169006,-0.0027180986835437684,-0.009855954149085454,0.02980034857048775,-0.006995712975098046,-0.08213740052812357
0.0027925268031909274,0.03490658503988659,0.10192722831646883,9.496106083333332,0.04903325,-2.6396232916666666,-0.0022852273309218775,0.02491002979379149,0.0816240698472582,-0.022406108790600936,0.11977515432983088,0.08000289898421559,0.0017897452760746693,0.00030252710681765495,0.007353546936661021,0.08289092084412589,0.049834008846760786,-0.012576747063457825
-0.0006981317007977319,0.03490658503988659,0.08726646259971647,9.324489708333333,-0.04903325,-2.623278875,-0.0022852273309218775,0.02491002979379149,0.0816240698472582,-0.022406108790600936,0.11977515432983088,0.08000289898421559,0.004323738177122245,0.003965278136405446,0.005286453921868134,0.025689898872442798,0.005422384913919806,-0.037426777475767094
-0.009075712110370514,0.02652900463031381,0.0767944870877505,9.26728425,-0.057205458333333334,-2.557901208333333,-0.0022852273309218775,0.02491002979379149,0.0816240698472582,-0.022406108790600936,0.11977515432983088,0.08000289898421559,-0.0017413069554759113,0.004696822408123032,-0.0015214235257121512,-0.08893079961907335,0.042263472906889844,0.07700120005610896
-0.005585053606381855,0.017453292519943295,0.07958701389094143,9.438900625,-0.13892754166666665,-2.7213453750000003,-0.0022852273309218775,0.02491002979379149,0.0816240698472582,-0.022406108790600936,0.11977515432983088,0.08000289898421559,2.563509510012393e-05,-0.002610767099801626,-0.0010720698078597098,0.02154846941453649,0.03402802629094291,-0.06622501199636902
-0.006283185307179587,0.02234021442552742,0.08168140899333462,9.389867375,-0.20430520833333332,-2.59876225,-0.0022852273309218775,0.02491002979379149,0.0816240698472582,-0.022406108790600936,0.11977515432983088,0.08000289898421559,0.0017224143194007194,0.003623591345527439,0.003840322676116952,-0.07241125490208528,-0.03532349576702954,0.1015405914297721
-0.009075712110370514,0.0153588974175501,0.07400196028455958,9.528794916666666,-0.13075533333333333,-2.811239666666667,-0.0022852273309218775,0.02491002979379149,0.0816240698472582,-0.022406108790600936,0.11977515432983088,0.08000289898421559,-0.0007416689855748842,-0.01612143623181449,0.008127448073088413,-0.16319713519871754,0.16367886517801972,-1.4539988939965036
-0.00767944870877505,0.028623399732707,0.07190756518216637,9.577828166666666,0.024516625,-2.7622064166666664,-0.0022852273309218775,0.02491002979379149,0.0816240698472582,-0.022406108790600936,0.11977515432983088,0.08000289898421559,-0.0040767454085949405,0.0008257250515480566,-0.008173940400109301,0.013292720879977474,0.009439021339028204,-0.029188967105460702
0.0006981317007977319,0.02722713633111154,0.0879645943005142,9.545139333333333,0.008172208333333333,-2.7131731666666665,-0.0022852273309218775,0.02491002979379149,0.0816240698472582,-0.022406108790600936,0.11977515432983088,0.08000289898421559,-0.0018658943592873433,-0.0004626875109333338,-0.0018496107407586285,0.058272481564548985,0.017525361814419185,-0.004606621341774335
0.0041887902047863905,0.027925268031909273,0.09145525280450287,9.422556208333333,-0.024516625,-2.7131731666666665,-0.0022852273309218775,0.02491002979379149,0.0816240698472582,-0.022406108790600936,0.11977515432983088,0.08000289898421559,0.003662025201440381,0.0007220606019700672,0.00822128905679214,-0.019285367130275503,0.001196544750934017,-0.02111154348654067
-0.003490658503988659,0.02652900463031381,0.07539822368615504,9.455245041666666,-0.024516625,-2.680484333333333,-0.0022852273309218775,0.02491002979379149,0.0816240698472582,-0.022406108790600936,0.11977515432983088,0.08000289898421559,0.0010370189009831238,0.0030400411185680016,-0.004535098508929778,0.09499108928836975,0.0013458127393865685,-0.09458480489752213
-0.005585053606381855,0.02024581932313422,0.08447393579652555,9.259112041666667,-0.024516625,-2.5006957499999998,-0.0022852273309218775,0.02491002979379149,0.0816240698472582,-0.022406108790600936,0.11977515432983088,0.08000289898421559,-0.004473879813679948,0.00020218377739093606,-0.0041389061699384265,-0.10103788742671255,0.11966613337127503,0.08509825691464168
0.003490658503988659,0.02024581932313422,0.09285151620609833,9.455245041666666,-0.26151066666666667,-2.680484333333333,-0.0022852273309218775,0.02491002979379149,0.0816240698472582,-0.022406108790600936,0.11977515432983088,0.08000289898421559,0.002357565051467661,0.0013563424071180033,0.006538719014697667,0.10726442173208252,-0.04368846373485996,-0.07423652346086922
-0.0013962634015954637,0.017453292519943295,0.07958701389094143,9.234595416666666,-0.17161637500000002,-2.5415567916666664,-0.0022852273309218775,0.02491002979379149,0.0816240698472582,-0.022406108790600936,0.11977515432983088,0.08000289898421559,0.003357103603672496,0.003344601983628146,0.004744734208342729,-0.219646966194471,-0.051618092673506,0.146230510017383
-0.008377580409572781,0.01117010721276371,0.07051130178057091,9.667722458333333,-0.06537766666666667,-2.8439284999999996,-0.0022852273309218775,0.02491002979379149,0.0816240698472582,-0.022406108790600936,0.11977515432983088,0.08000289898421559,-0.0036002337101995177,-0.00886868328172752,-0.005754300507547886,0.09913156106892448,-0.04757133844016547,-0.06215988275587296
-0.0006981317007977319,0.028623399732707,0.08237954069413235,9.46341725,0.032688833333333334,-2.729517583333333,-0.0022852273309218775,0.02491002979379149,0.0816240698472582,-0.022406108790600936,0.11977515432983088,0.08000289898421559,-0.0011381814956504198,-0.00027516620499422946,-0.004289636585173855,0.02570814753892224,0.01328470797836559,-0.008805874697803867
0.0013962634015954637,0.029321531433504733,0.09075712110370514,9.406211791666665,0.008172208333333333,-2.7213453750000003,-0.0022852273309218775,0.02491002979379149,0.0816240698472582,-0.022406108790600936,0.11977515432983088,0.08000289898421559,0.0003941495345741978,-0.012119499569620508,0.007330559890738362,-0.04772714750685962,0.2597302729328324,-1.5279282984843277
-0.003490658503988659,0.033510321638291124,0.08307767239493008,9.316317499999998,-0.008172208333333333,-2.606934458333333,-0.0022852273309218775,0.02491002979379149,0.0816240698472582,-0.022406108790600936,0.11977515432983088,0.08000289898421559,0.004297320011591528,0.0019910470745645287,0.004719542293132774,-0.047862181436849595,0.03420807154537139,0.02810649103976174
-0.011868238913561441,0.029321531433504733,0.07330382858376185,9.406211791666665,-0.07354987499999999,-2.672312125,-0.0022852273309218775,0.02491002979379149,0.0816240698472582,-0.022406108790600936,0.11977515432983088,0.08000289898421559,-0.004984128247376392,0.0023701207941169314,-0.005797589697280479,0.00943881563079882,0.08723019255791968,-0.05366509709650827
-0.0020943951023931952,0.025132741228718346,0.08517206749732328,9.381695166666667,-0.24516625,-2.574245625,-0.0022852273309218775,0.02491002979379149,0.0816240698472582,-0.022406108790600936,0.11977515432983088,0.08000289898421559,-0.003046906731159768,0.0019292731758815324,0.000559714291028729,-0.00721824842399883,0.017623520692610996,0.03620348243876594
0.0041887902047863905,0.020943951023931952,0.08447393579652555,9.389867375,-0.2778550833333333,-2.655967708333333,-0.0022852273309218775,0.02491002979379149,0.0816240698472582,-0.022406108790600936,0.11977515432983088,0.08000289898421559,0.0022983851862975516,0.004974040563230963,0.007102174654193324,-0.07247464745579768,-0.11714980300569489,0.08483959475396158
-0.0006981317007977319,0.01117010721276371,0.06981317007977318,9.528794916666666,-0.04086104166666667,-2.8357562916666668,-0.0022852273309218775,0.02491002979379149,0.0816240698472582,-0.022406108790600936,0.11977515432983088,0.08000289898421559,0.0031760098635058983,-0.009730994802578295,-0.004614550531380133,-0.027562925613410814,-0.0679829405673295,-0.05387099064833282
-0.006981317007977318,0.0307177948351002,0.07888888219014369,9.577828166666666,0.0980665,-2.7376897916666665,-0.0022852273309218775,0.02491002979379149,0.0816240698472582,-0.022406108790600936,0.11977515432983088,0.08000289898421559,-0.0015367802650112518,0.0008884805800068037,-0.004290875530005897,0.08288254744985671,0.09930109420771899,-0.029159177552469523
-0.0041887902047863905,0.028623399732707,0.0879645943005142,9.406211791666665,-0.0980665,-2.6886565416666666,-0.0022852273309218775,0.02491002979379149,0.0816240698472582,-0.022406108790600936,0.11977515432983088,0.08000289898421559,-0.0009013315114437232,0.0011082805097587833,-0.002922003080244573,-0.035572334000077255,-0.027400957468621284,0.011734291998129621
-0.0020943951023931952,0.02652900463031381,0.0942477796076938,9.471589458333332,-0.04086104166666667,-2.7213453750000003,-0.0022852273309218775,0.02491002979379149,0.0816240698472582,-0.022406108790600936,0.11977515432983088,0.08000289898421559,0.003892116679354123,-0.0021336170652787078,0.004422917287906931,0.001094576666948327,-0.03165065688462652,-0.033204439109681974
-0.009773843811168246,0.031415926535897934,0.08517206749732328,9.46341725,0.024516625,-2.6641399166666666,-0.0022852273309218775,0.02491002979379149,0.0816240698472582,-0.022406108790600936,0.11977515432983088,0.08000289898421559,-0.0010718239903895815,0.0029701808478567785,-0.0035887090575137007,0.07468128277004801,0.021684330272862602,-0.029181229637072002
-0.00767944870877505,0.025132741228718346,0.09285151620609833,9.308145291666667,-0.016344416666666667,-2.6151066666666667,-0.0022852273309218775,0.02491002979379149,0.0816240698472582,-0.022406108790600936,0.11977515432983088,0.08000289898421559,-0.006611050637917487,-0.004340516281585896,0.006834467184693663,-0.1521676541157749,0.542633090797344,-1.4761957837328097
0.0027925268031909274,0.02024581932313422,0.09005898940290741,9.373522958333332,-0.48216029166666663,-2.5660734166666663,-0.0022852273309218775,0.02491002979379149,0.0816240698472582,-0.022406108790600936,0.11977515432983088,0.08000289898421559,-0.003990660881705812,0.0028519217494440492,0.0019370579149475236,-0.01127337590840156,-0.10513308810978776,-0.017047747538202505
0.010471975511965976,0.013962634015954637,0.08656833089891874,9.389867375,-0.269682875,-2.5415567916666664,-0.0022852273309218775,0.02491002979379149,0.0816240698472582,-0.022406108790600936,0.11977515432983088,0.08000289898421559,0.003611754434032278,0.002036009102889743,0.005863656481469944,-0.12162517605355455,-0.14995866938868233,0.10938092521865433
0.003490658503988659,0.010471975511965976,0.0747000919853573,9.626861416666666,0.032688833333333334,-2.7703786249999998,-0.0022852273309218775,0.02491002979379149,0.0816240698472582,-0.022406108790600936,0.11977515432983088,0.08000289898421559,0.0014002151228979126,-0.00868879358181724,-0.001776253633015319,0.06241464670278132,-0.006728114545533685,-0.0295344089824811
0.0,0.027925268031909273,0.07819075048934597,9.496106083333332,0.04903325,-2.7213453750000003,-0.0022852273309218775,0.02491002979379149,0.0816240698472582,-0.022406108790600936,0.11977515432983088,0.08000289898421559,0.00175038841737073,-9.042969881825543e-05,-0.0007873296913966566,0.06653821295877652,0.0013470903018061716,0.0036140650321703966
-0.003490658503988659,0.027925268031909273,0.07958701389094143,9.357178541666666,0.04903325,-2.7376897916666665,-0.0022852273309218775,0.02491002979379149,0.0816240698472582,-0.022406108790600936,0.11977515432983088,0.08000289898421559,0.0014840353489206967,-0.0004573561099331181,-0.0029624049918576334,-0.03166382226192317,-0.027172490228379004,-0.025092492595093465
-0.006283185307179587,0.028623399732707,0.08587019919812101,9.414383999999998,0.10623870833333333,-2.69682875,-0.0022852273309218775,0.02491002979379149,0.0816240698472582,-0.022406108790600936,0.11977515432983088,0.08000289898421559,0.005128630090419882,0.004173002772735042,0.004154285552515476,-0.015147230004926591,0.07888631614266366,-0.02098767199974267
-0.016755160819145562,0.020943951023931952,0.07749261878854824,9.438900625,-0.04903325,-2.6641399166666666,-0.0022852273309218775,0.02491002979379149,0.0816240698472582,-0.022406108790600936,0.11977515432983088,0.08000289898421559,-0.0055095856815193115,-0.003501234726667811,-0.003344738321844021,0.005050648982459446,0.12396377204054014,-0.05390555156537788
-0.005585053606381855,0.027925268031909273,0.08447393579652555,9.422556208333333,-0.29419949999999995,-2.5660734166666663,-0.0022852273309218775,0.02491002979379149,0.0816240698472582,-0.022406108790600936,0.11977515432983088,0.08000289898421559,-0.004868453600271062,0.0050280713721243325,0.0016305356120158332,0.029776688321144624,0.03809625182584398,0.007600357212606505
0.0041887902047863905,0.017453292519943295,0.08168140899333462,9.357178541666666,-0.367749375,-2.5905900416666663,-0.0022852273309218775,0.02491002979379149,0.0816240698472582,-0.022406108790600936,0.11977515432983088,0.08000289898421559,-0.00040285519673227606,0.0023127943784382165,0.003250833281610125,-0.03174712205940318,-0.1048861039684069,0.06041508150110903
0.004886921905584123,0.013264502315156905,0.0747000919853573,9.414383999999998,-0.15527195833333335,-2.7213453750000003,-0.0022852273309218775,0.02491002979379149,0.0816240698472582,-0.022406108790600936,0.11977515432983088,0.08000289898421559,-7.010855893833115e-05,-0.0060770549828460035,0.006598977607718693,-0.24262824850981307,0.14207721033892742,-1.356885103854512
0.0006981317007977319,0.01117010721276371,0.07749261878854824,9.594172583333334,0.057205458333333334,-2.8194118749999997,-0.0022852273309218775,0.02491002979379149,0.0816240698472582,-0.022406108790600936,0.11977515432983088,0.08000289898421559,0.0010789789400108781,-0.010588356049069715,-0.0015959836030681601,-0.007216851931156317,-0.006815490211422744,-0.0373834993726969
-0.0013962634015954637,0.032114058236695664,0.08098327729253688,9.602344791666665,0.07354987499999999,-2.754034208333333,-0.0022852273309218775,0.02491002979379149,0.0816240698472582,-0.022406108790600936,0.11977515432983088,0.08000289898421559,0.0017386733928451642,0.0017412851246295868,-0.004452459263165789,0.24216827958258136,0.005172391989511311,-0.07830968101937429
-0.004886921905584123,0.028623399732707,0.09005898940290741,9.112012291666666,0.06537766666666667,-2.606934458333333,-0.0022852273309218775,0.02491002979379149,0.0816240698472582,-0.022406108790600936,0.11977515432983088,0.08000289898421559,0.0007744934586261484,-0.0005972484532301735,-6.753378950663381e-06,-0.19085893909577062,0.02562061212648835,0.05664804507381536
-0.006283185307179587,0.030019663134302467,0.09005898940290741,9.487933875,0.016344416666666667,-2.729517583333333,-0.0022852273309218775,0.02491002979379149,0.0816240698472582,-0.022406108790600936,0.11977515432983088,0.08000289898421559,0.0026827050817763284,0.003569453181319052,0.0009723650391403734,-0.0029299156455444976,0.05032583579290549,-0.0617842337528601
-0.011868238913561441,0.023038346126325153,0.0879645943005142,9.487933875,-0.08172208333333333,-2.6151066666666667,-0.0022852273309218775,0.02491002979379149,0.0816240698472582,-0.022406108790600936,0.11977515432983088,0.08000289898421559,-0.0061867294133393985,-0.0016070297839941709,0.0018824403204648912,-0.01107269627634922,0.15245976695410382,0.011623019566052294
0.0006981317007977319,0.02652900463031381,0.08447393579652555,9.504278291666665,-0.3840937916666667,-2.6477955,-0.0022852273309218775,0.02491002979379149,0.0816240698472582,-0.022406108790600936,0.11977515432983088,0.08000289898421559,-0.0038437011529493924,0.007700833343872936,0.004615286528915637,0.16848403409667095,-0.07640821030801019,-0.08660652918043593
0.008377580409572781,0.01117010721276371,0.0747000919853573,9.161045541666667,-0.22882183333333334,-2.4843513333333336,-0.0022852273309218775,0.02491002979379149,0.0816240698472582,-0.022406108790600936,0.11977515432983088,0.08000289898421559,-0.0010416702674129858,0.0006818737762085388,0.006616776066970321,-0.26455703439488737,-0.018833462861074367,0.15031442905659964
0.010471975511965976,0.009075712110370514,0.06213372137099814,9.684066875,-0.18796079166666665,-2.7948952499999997,-0.0022852273309218775,0.02491002979379149,0.0816240698472582,-0.022406108790600936,0.11977515432983088,0.08000289898421559,0.000470546262399434,-0.003406863211064461,-0.005866895511771857,0.07456649963198972,-0.17413640347206247,-0.11546822558990613
0.009773843811168246,0.016755160819145562,0.07400196028455958,9.528794916666666,0.16344416666666667,-2.574245625,-0.0022852273309218775,0.02491002979379149,0.0816240698472582,-0.022406108790600936,0.11977515432983088,0.08000289898421559,0.008746723050782683,-0.0006622578265641431,-0.003196741766693651,0.08678340003355811,-0.05181846744995604,0.09733100879153471
-0.00767944870877505,0.01815142422074103,0.08028514559173915,9.349006333333334,0.269682875,-2.778550833333333,-0.0022852273309218775,0.02491002979379149,0.0816240698472582,-0.022406108790600936,0.11977515432983088,0.08000289898421559,0.009226910782385623,-0.01378578545000669,0.0018381258275793153,-0.20946873134645777,0.14658870017974757,-1.4091520037570102
-0.024434609527920613,0.024434609527920613,0.08517206749732328,9.504278291666665,0.4494714583333333,-2.8194118749999997,-0.0022852273309218775,0.02491002979379149,0.0816240698472582,-0.022406108790600936,0.11977515432983088,0.08000289898421559,0.008558503886524014,0.0031767005830985653,0.00024277014350805058,0.0950222449669658,0.1404009033086249,-0.08638975026006564
-0.041887902047863905,0.01815142422074103,0.08447393579652555,9.308145291666667,0.17161637500000002,-2.655967708333333,-0.0022852273309218775,0.02491002979379149,0.0816240698472582,-0.022406108790600936,0.11977515432983088,0.08000289898421559,0.0036580925887981855,-0.0024339399441246183,0.0015594236027279761,-0.019456419585257106,0.10378990123366803,-0.058013141347692206
-0.048869219055841226,0.023038346126325153,0.08168140899333462,9.340834124999999,-0.032688833333333334,-2.549729,-0.0022852273309218775,0.02491002979379149,0.0816240698472582,-0.022406108790600936,0.11977515432983088,0.08000289898421559,-0.0035653199066549186,0.014801152316410184,0.0064793783725921195,-0.007046919725461058,0.27539576203351646,-0.025554608289698418
-0.041887902047863905,-0.006283185307179587,0.06841690667817772,9.349006333333334,-0.5802267916666666,-2.5088679583333335,-0.0022852273309218775,0.02491002979379149,0.0816240698472582,-0.022406108790600936,0.11977515432983088,0.08000289898421559,-0.018568267379993158,-0.004877567294921889,0.005021987441333975,-0.17492245866713585,0.25520078229697074,0.08034741020507798
-0.004886921905584123,0.003490658503988659,0.05864306286700947,9.692239083333332,-1.0869037083333333,-2.680484333333333,-0.0022852273309218775,0.02491002979379149,0.0816240698472582,-0.022406108790600936,0.11977515432983088,0.08000289898421559,-0.023390151268042423,-0.0094227995065764,0.003788771755147046,0.24224619825563037,-0.1738887664909137,-0.10716691072411734
0.04258603374866164,0.02234021442552742,0.050963614158234416,9.201906583333333,-0.73549875,-2.476179125,-0.0022852273309218775,0.02491002979379149,0.0816240698472582,-0.022406108790600936,0.11977515432983088,0.08000289898421559,-0.02010540652072414,0.005051855972531165,-0.017883797917213038,-0.158347660255578,-0.3706328620832038,0.17908986961709025
0.08237954069413235,0.012566370614359173,0.08726646259971647,9.5124505,0.008172208333333333,-2.8439284999999996,-0.0022852273309218775,0.02491002979379149,0.0816240698472582,-0.022406108790600936,0.11977515432983088,0.08000289898421559,0.001542398635052286,-0.011971750280644115,-0.005367134500452997,0.11964199215924004,-0.3346494064062231,-0.17637210877990897
0.07888888219014369,0.03630284844148206,0.09773843811168245,9.26728425,0.6782932916666666,-2.5006957499999998,-0.0022852273309218775,0.02491002979379149,0.0816240698472582,-0.022406108790600936,0.11977515432983088,0.08000289898421559,0.03230317353713223,0.005639139486869426,0.005617971843746094,-0.19091549669479174,-0.1748533710657917,0.16277250649298225
0.014660765716752367,0.025132741228718346,0.08656833089891874,9.643205833333333,1.0296982499999998,-2.8357562916666668,-0.0022852273309218775,0.02491002979379149,0.0816240698472582,-0.022406108790600936,0.11977515432983088,0.08000289898421559,0.03560403056426348,-0.0103247761729346,-0.0018339626952307943,0.12371149846562929,0.06669230378191258,0.011901730513778174
-0.056548667764616284,0.046076692252650306,0.09005898940290741,9.389867375,0.8989429166666666,-2.8684451249999996,-0.0022852273309218775,0.02491002979379149,0.0816240698472582,-0.022406108790600936,0.11977515432983088,0.08000289898421559,0.02493979737255057,-0.00885869988041697,-0.002787949485231883,0.33400551894638925,0.7769447470854144,-1.6840297938869726
-0.09354964790689606,0.039793506945470715,0.10262536001726656,8.539957708333333,-0.057205458333333334,-2.427145875,-0.0022852273309218775,0.02491002979379149,0.0816240698472582,-0.022406108790600936,0.11977515432983088,0.08000289898421559,-0.013446056323985184,0.01791390167937614,-0.013790353171062265,-0.2400271426520718,0.5567204042533819,0.09309004389041743
-0.06702064327658225,0.0041887902047863905,0.12985249634837812,9.013945791666666,-1.1686257916666667,-2.623278875,-0.0022852273309218775,0.02491002979379149,0.0816240698472582,-0.022406108790600936,0.11977515432983088,0.08000289898421559,-0.03506483708976627,-0.007150323379616449,-0.005766906916087409,-0.18722287577246724,0.135087382428011,-0.10320994021860784
0.003490658503988659,0.01815142422074103,0.14172073526193954,9.381695166666667,-1.4383086666666667,-2.427145875,-0.0022852273309218775,0.02491002979379149,0.0816240698472582,-0.022406108790600936,0.11977515432983088,0.08000289898421559,-0.026863569785755485,0.004643840087391185,0.011975339334104987,-0.03988245035338733,-0.25328080968183303,0.12177016418775514
0.056548667764616284,0.009075712110370514,0.11798425743481668,9.455245041666666,-0.93163175,-2.680484333333333,-0.0022852273309218775,0.02491002979379149,0.0816240698472582,-0.022406108790600936,0.11977515432983088,0.08000289898421559,-0.0016630706342477995,0.011692049957954812,0.025653454864141174,-0.06864075488631487,-0.47346415688471477,0.023325364140139426
0.060039326268604934,-0.013962634015954637,0.06632251157578452,9.586000375,0.016344416666666667,-2.7376897916666665,-0.0022852273309218775,0.02491002979379149,0.0816240698472582,-0.022406108790600936,0.11977515432983088,0.08000289898421559,0.01673073096797137,-0.023994882467755666,0.017676293723583484,-0.14203226563549473,-0.3454716133012568,0.039650155789205596
0.02722713633111154,0.033510321638291124,0.031415926535897934,9.863855458333333,0.7109821249999999,-2.827584083333333,-0.0022852273309218775,0.02491002979379149,0.0816240698472582,-0.022406108790600936,0.11977515432983088,0.08000289898421559,0.0212454757879043,0.0036873940397634678,0.0008757678170272447,0.3320092152452412,0.04728773045708131,-0.05357217283016888
-0.016057029118347832,0.02652900463031381,0.030019663134302467,9.193734375,0.6210878333333334,-2.729517583333333,-0.0022852273309218775,0.02491002979379149,0.0816240698472582,-0.022406108790600936,0.11977515432983088,0.08000289898421559,0.00725633983949557,-0.006562121558217074,-0.017896510226565524,-0.15406212347283618,0.17392117782788294,-0.033152097023409474
-0.0307177948351002,0.039793506945470715,0.06562437987498679,9.496106083333332,0.2778550833333333,-2.672312125,-0.0022852273309218775,0.02491002979379149,0.0816240698472582,-0.022406108790600936,0.11977515432983088,0.08000289898421559,-0.004830335921522072,-0.006492759876883273,-0.014868692269664774,0.02983835789563332,0.1118239020697954,-0.008138790483739477
-0.020943951023931952,0.05235987755982988,0.09564404300928926,9.430728416666666,0.057205458333333334,-2.6641399166666666,-0.0022852273309218775,0.02491002979379149,0.0816240698472582,-0.022406108790600936,0.11977515432983088,0.08000289898421559,0.004904825330039978,0.010034428702823905,0.004017632344820973,-0.039715168602849994,0.04627153119698993,0.12641426721662488
-0.0307177948351002,0.032812189937493394,0.08726646259971647,9.504278291666665,-0.032688833333333334,-2.9256505833333333,-0.0022852273309218775,0.02491002979379149,0.0816240698472582,-0.022406108790600936,0.11977515432983088,0.08000289898421559,-0.006177664767783715,-0.02288163133464152,0.012397473562771398,-0.019184815242886732,0.4150100779432724,-1.736964333782057
-0.032812189937493394,0.059341194567807204,0.07749261878854824,9.112012291666666,-0.10623870833333333,-2.3862848333333333,-0.0022852273309218775,0.02491002979379149,0.0816240698472582,-0.022406108790600936,0.11977515432983088,0.08000289898421559,-0.007060899018652192,0.02305748756883002,-0.00271649185953385,-0.031504893234579896,0.18124662401478395,0.06500114334734831
