angular_velocity_x,angular_velocity_y,angular_velocity_z,linear_acceleration_x,linear_acceleration_y,linear_acceleration_z,fake_gyro_bias_x,fake_gyro_bias_y,fake_gyro_bias_z,fake_acc_bias_x,fake_acc_bias_y,fake_acc_bias_z,fake_gyro_noise_x,gyro_noise_y,gyro_noise_z,fake_acc_noise_x,fake_acc_noise_y,fake_acc_noise_z
-0.2150245638457014,0.33300882128051806,-0.04677482395344803,9.749444541666666,-0.024516625,-4.077931958333333,-0.0032089519433683078,0.021309989364222726,0.07839539595625523,-0.027379421589410518,0.13535589197030506,0.0773187732096065,0.0,0.0,0.0,0.0,0.0,0.0
-0.22479840765686968,0.3364994797845067,-0.05794493116621174,9.496106083333332,0.024516625,-4.077931958333333,-0.0032089519433683078,0.021309989364222726,0.07839539595625523,-0.027379421589410518,0.13535589197030506,0.0773187732096065,0.0,0.0,0.0,0.0,0.0,0.0
-0.23736477827122882,0.3385938748868999,-0.0747000919853573,9.210078791666666,0.032688833333333334,-4.0615875416666665,-0.0032089519433683078,0.021309989364222726,0.07839539595625523,-0.027379421589410518,0.13535589197030506,0.0773187732096065,0.0,0.0,0.0,0.0,0.0,0.0
-0.24853488548399255,0.3364994797845067,-0.07609635538695278,8.940395916666665,-0.016344416666666667,-4.0615875416666665,-0.0032089519433683078,0.021309989364222726,0.07839539595625523,-0.027379421589410518,0.13535589197030506,0.0773187732096065,0.0,0.0,0.0,0.0,0.0,0.0
-0.25202554398798116,0.33719761148530447,-0.07330382858376185,8.719746291666667,-0.14709974999999997,-4.045243125,-0.0032089519433683078,0.021309989364222726,0.07839539595625523,-0.027379421589410518,0.13535589197030506,0.0773187732096065,0.0,0.0,0.0,0.0,0.0,0.0
-0.2555162024919699,0.3344050846821135,-0.07260569688296412,8.638024208333333,-0.22882183333333334,-4.053415333333333,-0.0032089519433683078,0.021309989364222726,0.07839539595625523,-0.027379421589410518,0.13535589197030506,0.0773187732096065,0.0,0.0,0.0,0.0,0.0,0.0
-0.24853488548399255,0.33161255787892263,-0.07260569688296412,8.482752249999999,-0.2860272916666666,-4.004382083333333,-0.0032089519433683078,0.021309989364222726,0.07839539595625523,-0.027379421589410518,0.13535589197030506,0.0773187732096065,0.0,0.0,0.0,0.0,0.0,0.0
-0.24713862208239704,0.3323106895797203,-0.0747000919853573,8.466407833333333,-0.3759215833333333,-3.930832208333333,-0.0032089519433683078,0.021309989364222726,0.07839539595625523,-0.027379421589410518,0.13535589197030506,0.0773187732096065,0.0,0.0,0.0,0.0,0.0,0.0
-0.239459173373622,0.3274237676741362,-0.0747000919853573,8.539957708333333,-0.43312704166666666,-3.979865458333333,-0.0032089519433683078,0.021309989364222726,0.07839539595625523,-0.027379421589410518,0.13535589197030506,0.0773187732096065,0.0,0.0,0.0,0.0,0.0,0.0
-0.2303834612632515,0.3288200310757317,-0.07260569688296412,8.613507583333332,-0.4739880833333333,-3.955348833333333,-0.0032089519433683078,0.021309989364222726,0.07839539595625523,-0.027379421589410518,0.13535589197030506,0.0773187732096065,0.0,0.0,0.0,0.0,0.0,0.0
-0.22200588085367873,0.3232349774693498,-0.06283185307179587,8.67888525,-0.5475379583333333,-3.881798958333333,-0.0032089519433683078,0.021309989364222726,0.07839539595625523,-0.027379421589410518,0.13535589197030506,0.0773187732096065,0.0,0.0,0.0,0.0,0.0,0.0
-0.20874137853852182,0.3274237676741362,-0.05026548245743669,8.842329416666665,-0.6047434166666666,-3.8654545416666664,-0.0032089519433683078,0.021309989364222726,0.07839539595625523,-0.027379421589410518,0.13535589197030506,0.0773187732096065,0.0,0.0,0.0,0.0,0.0,0.0
-0.19058995431778078,0.3239331091701475,-0.03630284844148206,8.940395916666665,-0.612915625,-3.8245934999999998,-0.0032089519433683078,0.021309989364222726,0.07839539595625523,-0.027379421589410518,0.13535589197030506,0.0773187732096065,0.0,0.0,0.0,0.0,0.0,0.0
-0.17243853009703977,0.3225368457685521,-0.01815142422074103,8.997601374999999,-0.5230213333333333,-3.751043625,-0.0032089519433683078,0.021309989364222726,0.07839539595625523,-0.027379421589410518,0.13535589197030506,0.0773187732096065,0.0,0.0,0.0,0.0,0.0,0.0
-0.14800392056911915,0.32812189937493397,0.0,9.013945791666666,-0.5066769166666666,-3.6856659583333333,-0.0032089519433683078,0.021309989364222726,0.07839539595625523,-0.027379421589410518,0.13535589197030506,0.0773187732096065,0.0,0.0,0.0,0.0,0.0,0.0
-0.1319468914507713,0.3274237676741362,0.012566370614359173,9.013945791666666,-0.3759215833333333,-3.742871416666666,-0.0032089519433683078,0.021309989364222726,0.07839539595625523,-0.027379421589410518,0.13535589197030506,0.0773187732096065,0.0,0.0,0.0,0.0,0.0,0.0
-0.11798425743481668,0.33161255787892263,0.01815142422074103,8.825985,-0.29419949999999995,-3.702010375,-0.0032089519433683078,0.021309989364222726,0.07839539595625523,-0.027379421589410518,0.13535589197030506,0.0773187732096065,0.0,0.0,0.0,0.0,0.0,0.0
-0.10332349171806432,0.3392920065876977,0.01884955592153876,8.646196416666667,-0.29419949999999995,-3.67749375,-0.0032089519433683078,0.021309989364222726,0.07839539595625523,-0.027379421589410518,0.13535589197030506,0.0773187732096065,0.0,0.0,0.0,0.0,0.0,0.0
-0.0991347015132779,0.33719761148530447,0.01884955592153876,8.401030166666667,-0.22882183333333334,-3.6693215416666662,-0.0032089519433683078,0.021309989364222726,0.07839539595625523,-0.027379421589410518,0.13535589197030506,0.0773187732096065,0.0,0.0,0.0,0.0,0.0,0.0
-0.09145525280450287,0.33161255787892263,0.016755160819145562,8.204897166666667,-0.13075533333333333,-3.6856659583333333,-0.0032089519433683078,0.021309989364222726,0.07839539595625523,-0.027379421589410518,0.13535589197030506,0.0773187732096065,0.0,0.0,0.0,0.0,0.0,0.0
-0.08447393579652555,0.3344050846821135,0.013264502315156905,8.155863916666666,-0.08989429166666667,-3.7346992083333332,-0.0032089519433683078,0.021309989364222726,0.07839539595625523,-0.027379421589410518,0.13535589197030506,0.0773187732096065,-0.004154297439916353,0.0014088399661163274,0.004402252445131585,-0.0007252084323053882,-0.03323995084331246,0.025932342608062497
-0.07539822368615504,0.3309144261781249,0.0041887902047863905,8.164036124999999,-0.016344416666666667,-3.77556025,-0.0032089519433683078,0.021309989364222726,0.07839539595625523,-0.027379421589410518,0.13535589197030506,0.0773187732096065,-0.0014541445706071645,0.003954795248437267,0.005892978397618545,0.0237629770148573,-0.06574105169608599,-0.006755846909959875
-0.07260569688296412,0.3232349774693498,-0.006981317007977318,8.123175083333333,0.122583125,-3.751043625,-0.0032089519433683078,0.021309989364222726,0.07839539595625523,-0.027379421589410518,0.13535589197030506,0.0773187732096065,-0.0019153406506614307,0.004305655306722528,0.006203100873707487,0.027596212076397415,-0.04538473460206601,-0.047857952581116296
-0.06911503837897544,0.314857397059777,-0.019547687622336492,8.074141833333334,0.220649625,-3.6448049166666663,-0.0032089519433683078,0.021309989364222726,0.07839539595625523,-0.027379421589410518,0.13535589197030506,0.0773187732096065,0.0016618904373608442,0.0028985116737535285,0.007189850698973122,-0.017501908756466525,0.004002320493181406,-0.04394114275615567
-0.07190756518216637,0.30857421175259747,-0.033510321638291124,8.115002875,0.220649625,-3.546738416666667,-0.0032089519433683078,0.021309989364222726,0.07839539595625523,-0.027379421589410518,0.13535589197030506,0.0773187732096065,-0.001573902791670595,0.0019521170900547646,-0.000154951715040715,-0.013453203468438315,-0.003825661023074621,-0.03585694780358085
-0.06911503837897544,0.3050835532486088,-0.032812189937493394,8.147691708333333,0.23699404166666665,-3.4650163333333333,-0.0032089519433683078,0.021309989364222726,0.07839539595625523,-0.027379421589410518,0.13535589197030506,0.0773187732096065,-0.006368158218296444,-0.0012155446119543544,-0.004081485605334405,0.04772017915469787,0.05297057601157954,-0.01949302666931114
-0.05585053606381855,0.30647981665020424,-0.024434609527920613,8.057797416666666,0.13892754166666665,-3.415983083333333,-0.0032089519433683078,0.021309989364222726,0.07839539595625523,-0.027379421589410518,0.13535589197030506,0.0773187732096065,-0.006035655463713964,-0.0006277621994694385,-0.010895672276908745,-0.0012883812726344089,0.0934330020370007,-0.023566391797288012
-0.0439822971502571,0.3078760800517997,-0.0027925268031909274,8.065969625,-0.04086104166666667,-3.358777625,-0.0032089519433683078,0.021309989364222726,0.07839539595625523,-0.027379421589410518,0.13535589197030506,0.0773187732096065,-0.009876012774343685,0.001996759159160165,-0.008535357733031233,0.0396098447293494,0.06010223854850952,-0.023764784841889847
-0.023736477827122883,0.3043854215478111,0.014660765716752367,7.992419749999999,-0.15527195833333335,-3.3015721666666664,-0.0032089519433683078,0.021309989364222726,0.07839539595625523,-0.027379421589410518,0.13535589197030506,0.0773187732096065,-0.008404238688293326,-0.0033239774959576414,-0.004456484769859505,0.043556764943048984,0.01891519157791101,-0.048191313007810724
-0.006981317007977318,0.31066860685499065,0.023736477827122883,7.910697666666666,-0.18796079166666665,-3.195333458333333,-0.0032089519433683078,0.021309989364222726,0.07839539595625523,-0.027379421589410518,0.13535589197030506,0.0773187732096065,-0.006278893900628218,0.0011907897639357394,-0.006072510056272677,-0.03810516251403504,0.034896936377981795,0.013031459601649415
0.005585053606381855,0.30857421175259747,0.03630284844148206,7.992419749999999,-0.2533384583333333,-3.211677875,-0.0032089519433683078,0.021309989364222726,0.07839539595625523,-0.027379421589410518,0.13535589197030506,0.0773187732096065,-0.007742981534051462,0.003403975881571482,-0.007870664018678615,0.0026797360246118623,-0.018526481515040116,0.02534314384274076
0.020943951023931952,0.30159289474462014,0.05166174585903216,7.992419749999999,-0.21247741666666667,-3.2525389166666665,-0.0032089519433683078,0.021309989364222726,0.07839539595625523,-0.027379421589410518,0.13535589197030506,0.0773187732096065,-0.004170571014981707,0.004174652297197098,-0.011384612616322903,0.02729293178306173,-0.035335798902076256,-0.03199942757098139
0.029321531433504733,0.2932153143350474,0.0747000919853573,7.9433865,-0.13892754166666665,-3.178989041666666,-0.0032089519433683078,0.021309989364222726,0.07839539595625523,-0.027379421589410518,0.13535589197030506,0.0773187732096065,-0.0028568281973371857,0.002669001378916495,-0.011508451236419883,0.030988873198261067,-0.01557857262378314,-0.019888158412105818
0.03490658503988659,0.2876302607286655,0.09843656981248018,7.886181041666666,-0.10623870833333333,-3.1299557916666663,-0.0032089519433683078,0.021309989364222726,0.07839539595625523,-0.027379421589410518,0.13535589197030506,0.0773187732096065,-0.0019226493918034463,0.0033241449291377236,-0.014718905401236078,-0.08756060305112355,-0.036577921103584723,0.004513890563703883
0.039095375244672985,0.28064894372068816,0.12775810124598494,8.065969625,-0.032688833333333334,-3.1299557916666663,-0.0032089519433683078,0.021309989364222726,0.07839539595625523,-0.027379421589410518,0.13535589197030506,0.0773187732096065,0.00044255418673521036,-0.000820003353528499,-0.012941497807764761,-0.09964074426302137,-0.0289087081731782,0.04145991814479126
0.03839724354387525,0.28204520712228365,0.153588974175501,8.270274833333334,0.024516625,-3.2035056666666666,-0.0032089519433683078,0.021309989364222726,0.07839539595625523,-0.027379421589410518,0.13535589197030506,0.0773187732096065,-0.0008345939046645235,-0.0053325899702909895,-0.00592720727047914,-0.07520381960701335,-0.0007773252478248445,0.000645035606709409
0.04049163864626844,0.29251718263424964,0.16615534478986016,8.425546791666665,0.024516625,-3.195333458333333,-0.0032089519433683078,0.021309989364222726,0.07839539595625523,-0.027379421589410518,0.13535589197030506,0.0773187732096065,0.00013655509819392585,-0.004188645788622447,0.002212735139489009,-0.05049144297568805,-0.04592739759734568,0.08277068472079285
0.039793506945470715,0.3008947630438224,0.16196655458507375,8.5317855,0.11441091666666667,-3.3506054166666663,-0.0032089519433683078,0.021309989364222726,0.07839539595625523,-0.027379421589410518,0.13535589197030506,0.0773187732096065,-0.000186167253110764,-0.0005693659371365991,0.009941632145669545,0.0028840341039071023,-0.09461186043864996,0.013319424850769817
0.04049163864626844,0.3022910264454179,0.1424188669627373,8.5317855,0.3023717083333333,-3.366949833333333,-0.0032089519433683078,0.021309989364222726,0.07839539595625523,-0.027379421589410518,0.13535589197030506,0.0773187732096065,0.0016126597808024236,-0.0020664510363612764,0.012479356880543593,0.05589187330155376,-0.06552017366475472,-0.0029041905488833893
0.03700098014227979,0.30647981665020424,0.11728612573401893,8.425546791666665,0.43312704166666666,-3.3506054166666663,-0.0032089519433683078,0.021309989364222726,0.07839539595625523,-0.027379421589410518,0.13535589197030506,0.0773187732096065,0.001970490275625567,0.0032608699240136594,0.017255370786913415,0.01899773525427639,-0.03632432484940121,0.0011063787018175527
0.033510321638291124,0.29949849964222697,0.08307767239493008,8.392857958333332,0.5066769166666666,-3.342433208333333,-0.0032089519433683078,0.021309989364222726,0.07839539595625523,-0.027379421589410518,0.13535589197030506,0.0773187732096065,0.004003444089336724,0.005662569459536003,0.010015000692369701,0.04348390795744186,-0.07255231063613933,0.02113472357463841
0.02583087292951608,0.28832839242946323,0.0635299847725936,8.311135875,0.6537766666666667,-3.3751220416666667,-0.0032089519433683078,0.021309989364222726,0.07839539595625523,-0.027379421589410518,0.13535589197030506,0.0773187732096065,0.0033482031907740278,0.005040820169480316,0.0045514334532776556,-0.005662101145810882,-0.01900987122007145,-0.023773964631641706
0.01884955592153876,0.278554548618295,0.05445427266222308,8.327480291666665,0.6946377083333333,-3.317916583333333,-0.0032089519433683078,0.021309989364222726,0.07839539595625523,-0.027379421589410518,0.13535589197030506,0.0773187732096065,0.0041955194081655,0.0003591909535350994,0.004882708151170177,-0.009815587960520804,0.0711520088805451,-0.007785738584160501
0.010471975511965976,0.27715828521669955,0.04537856055185257,8.351996916666666,0.5557101666666666,-3.293399958333333,-0.0032089519433683078,0.021309989364222726,0.07839539595625523,-0.027379421589410518,0.13535589197030506,0.0773187732096065,0.0038244969294538287,0.002667054345149329,0.003179110743930643,-0.009831891597175662,0.034520542155465586,-0.01575478856009723
0.0027925268031909274,0.2715732316103177,0.03839724354387525,8.376513541666666,0.4903325,-3.2525389166666665,-0.0032089519433683078,0.021309989364222726,0.07839539595625523,-0.027379421589410518,0.13535589197030506,0.0773187732096065,0.000667863808038182,0.0004208710820270592,0.0026938015233164774,0.03497235592166581,0.05934813401767192,-0.05702705182402585
0.0020943951023931952,0.2708750999095199,0.033510321638291124,8.311135875,0.3759215833333333,-3.1299557916666663,-0.0032089519433683078,0.021309989364222726,0.07839539595625523,-0.027379421589410518,0.13535589197030506,0.0773187732096065,0.0012045153900067623,-0.00489732080359041,0.0005418767527510636,0.022695599959090932,0.03482397385326168,-0.03616341638554324
-0.0006981317007977319,0.28064894372068816,0.032812189937493394,8.270274833333334,0.3105439166666667,-3.0482337083333335,-0.0032089519433683078,0.021309989364222726,0.07839539595625523,-0.027379421589410518,0.13535589197030506,0.0773187732096065,0.004635343440223293,-0.0011556095994626474,-0.005018064835485139,0.039028651809996685,0.030669356707102677,-0.003693524545602209
-0.009773843811168246,0.2827433388230814,0.04328416544945937,8.196724958333332,0.2533384583333333,-3.0318892916666664,-0.0032089519433683078,0.021309989364222726,0.07839539595625523,-0.027379421589410518,0.13535589197030506,0.0773187732096065,0.001455527191430596,0.0024338072957491024,-0.010530858348607562,0.06759570421842556,0.030335033999012908,-0.06897308338537898
-0.012566370614359173,0.2778564169174973,0.06422811647339133,8.065969625,0.196133,-2.8847895416666667,-0.0032089519433683078,0.021309989364222726,0.07839539595625523,-0.027379421589410518,0.13535589197030506,0.0773187732096065,0.003440266714559192,-0.0019368601479375855,-0.01633298339133073,-0.7487623671996265,-0.5409969370508915,-1.5437977879836642
-0.01884955592153876,0.278554548618295,0.09843656981248018,7.967903124999999,0.10623870833333333,-2.778550833333333,-0.0032089519433683078,0.021309989364222726,0.07839539595625523,-0.027379421589410518,0.13535589197030506,0.0773187732096065,0.0026076708402849097,0.0006180466210552848,-0.021368050737272385,-0.026293902931518186,0.0538516922744041,0.012257356453818279
-0.023736477827122883,0.27715828521669955,0.14102260356114182,8.025108583333333,0.0,-2.7948952499999997,-0.0032089519433683078,0.021309989364222726,0.07839539595625523,-0.027379421589410518,0.13535589197030506,0.0773187732096065,0.0049342264295381315,-0.003417763931416168,-0.018245322068344123,-0.02642221060386251,-0.00834771027586998,0.016426619586529117
-0.03420845333908886,0.2841396022246769,0.1780235837034216,8.082314041666667,0.016344416666666667,-2.8194118749999997,-0.0032089519433683078,0.021309989364222726,0.07839539595625523,-0.027379421589410518,0.13535589197030506,0.0773187732096065,0.0030772885789610484,-0.0070724226128439874,-0.012759979975566797,-0.06309295798364424,-0.03747681546156917,0.008602278727434817
-0.039793506945470715,0.2981022362406315,0.20385445663293766,8.213069375,0.08989429166666667,-2.827584083333333,-0.0032089519433683078,0.021309989364222726,0.07839539595625523,-0.027379421589410518,0.13535589197030506,0.0773187732096065,0.005220446077349345,-0.007270096609038617,-0.01307483621805296,-0.009741351066757501,0.015095306201780543,0.037427972952312843
-0.05026548245743669,0.3127630019573839,0.2303834612632515,8.237585999999999,0.057205458333333334,-2.8929617499999996,-0.0032089519433683078,0.021309989364222726,0.07839539595625523,-0.027379421589410518,0.13535589197030506,0.0773187732096065,0.005154699057448453,-0.007884887031380333,-0.004028807323467317,0.04326713020707723,0.014892104768598544,0.013179029677111164
-0.060039326268604934,0.32812189937493397,0.23806290997202653,8.155863916666666,0.024516625,-2.9093061666666666,-0.0032089519433683078,0.021309989364222726,0.07839539595625523,-0.027379421589410518,0.13535589197030506,0.0773187732096065,-0.0023360013882939568,-0.00326596246915088,-0.0031027848104561552,0.0926863290628546,0.0025506466308252893,0.009183761392720324
-0.05585053606381855,0.33510321638291124,0.24434609527920614,7.976075333333333,0.016344416666666667,-2.9174783749999995,-0.0032089519433683078,0.021309989364222726,0.07839539595625523,-0.027379421589410518,0.13535589197030506,0.0773187732096065,-0.002675429721836621,-0.001067153560029362,-0.00011747903674380401,0.006833062836547683,-0.017866426165544954,0.06241152864890579
-0.05026548245743669,0.33719761148530447,0.24504422698000386,7.967903124999999,0.04903325,-3.0318892916666664,-0.0032089519433683078,0.021309989364222726,0.07839539595625523,-0.027379421589410518,0.13535589197030506,0.0773187732096065,-0.002761208575066546,-0.0032269788723753635,0.00339728195463134,-0.05434945884041618,-0.05069768384984892,0.0831938430003492
-0.04468042885105484,0.3427826650916863,0.23876104167282428,8.082314041666667,0.14709974999999997,-3.18716125,-0.0032089519433683078,0.021309989364222726,0.07839539595625523,-0.027379421589410518,0.13535589197030506,0.0773187732096065,-0.005367646539550377,0.0020257528606513263,0.003721245610775382,0.031780576112771824,-0.046418666018738,0.04212194529343546
-0.03420845333908886,0.3392920065876977,0.23108159296404923,8.025108583333333,0.23699404166666665,-3.260711125,-0.0032089519433683078,0.021309989364222726,0.07839539595625523,-0.027379421589410518,0.13535589197030506,0.0773187732096065,-0.003858279639054335,-0.0023524828168947818,0.006466762466057071,-0.005123856519480429,-0.02593081069449757,0.04217922583825136
-0.02652900463031381,0.34417892849328174,0.21851522234969004,8.041452999999999,0.2860272916666666,-3.334261,-0.0032089519433683078,0.021309989364222726,0.07839539595625523,-0.027379421589410518,0.13535589197030506,0.0773187732096065,-0.005181208878682606,0.0023813069626080724,0.010863241103503493,-0.013165630115566087,-0.06239958076181056,0.021880661655693915
-0.016057029118347832,0.3392920065876977,0.19687313962496036,8.074141833333334,0.40861041666666664,-3.366949833333333,-0.0032089519433683078,0.021309989364222726,0.07839539595625523,-0.027379421589410518,0.13535589197030506,0.0773187732096065,-0.0026846082131649785,0.00020439647292401012,0.013248003030371965,0.019486497686078054,-0.02925023180867888,-0.031506517924564444
-0.010471975511965976,0.3385938748868999,0.17034413499464657,8.041452999999999,0.465815875,-3.293399958333333,-0.0032089519433683078,0.021309989364222726,0.07839539595625523,-0.027379421589410518,0.13535589197030506,0.0773187732096065,-0.005818400702498667,0.0007625194594892404,0.012048597003759378,0.03557337451800463,0.024251678702879836,-0.05175421377417202
0.0013962634015954637,0.3364994797845067,0.1466076571675237,7.976075333333333,0.416782625,-3.178989041666666,-0.0032089519433683078,0.021309989364222726,0.07839539595625523,-0.027379421589410518,0.13535589197030506,0.0773187732096065,-0.0028770584750169074,0.003969012632395781,0.012097070811985342,0.011177227399140378,-0.02026310628927633,-0.03172220200355912
0.006981317007977318,0.3288200310757317,0.1228711793404008,7.959730916666666,0.45764366666666667,-3.1054391666666663,-0.0032089519433683078,0.021309989364222726,0.07839539595625523,-0.027379421589410518,0.13535589197030506,0.0773187732096065,-0.00321466412889578,-0.0009882122392348266,0.0038355654787416995,0.03128795711985635,0.008568685216843161,-0.035732335497118406
0.013962634015954637,0.3302162944773272,0.11519173063162574,7.902525458333333,0.44129925,-3.023717083333333,-0.0032089519433683078,0.021309989364222726,0.07839539595625523,-0.027379421589410518,0.13535589197030506,0.0773187732096065,0.001752740841150003,-0.00047291511039018725,0.0015792965293201127,0.0436943517061892,0.021035159744354794,-0.015275306809060992
0.010471975511965976,0.33161255787892263,0.11239920382843484,7.820803375,0.4004382083333333,-2.982856041666666,-0.0032089519433683078,0.021309989364222726,0.07839539595625523,-0.027379421589410518,0.13535589197030506,0.0773187732096065,0.0015859514998228603,-0.0022719932791708253,-0.0017773117516166484,-0.009730966201896337,0.02085970034221652,-0.003129220319930784
0.006981317007977318,0.335801348083709,0.11588986233242347,7.84532,0.35957716666666667,-2.966511625,-0.0032089519433683078,0.021309989364222726,0.07839539595625523,-0.027379421589410518,0.13535589197030506,0.0773187732096065,0.003916209520261851,-0.001680356296970193,-0.001679852729074683,0.010995680829448254,0.03730870670384786,-0.019395936330471104
-0.0006981317007977319,0.3392920065876977,0.11938052083641214,7.8289755833333325,0.2860272916666666,-2.9174783749999995,-0.0032089519433683078,0.021309989364222726,0.07839539595625523,-0.027379421589410518,0.13535589197030506,0.0773187732096065,0.004586858012733625,-0.0032038470867649547,-0.0037795252541655785,-0.5006626945319317,-0.4817773179732743,-1.2847110364929122
-0.009075712110370514,0.34348079679248406,0.12845623294678266,7.714564666666666,0.17978858333333333,-2.811239666666667,-0.0032089519433683078,0.021309989364222726,0.07839539595625523,-0.027379421589410518,0.13535589197030506,0.0773187732096065,0.006034175272103274,-0.0012837559976872275,-0.005117065001328578,0.0066691428178017684,0.061608778781731925,-0.01528742889446427
-0.021642082724729686,0.346273323595675,0.13892820845874865,7.706392458333333,0.057205458333333334,-2.7703786249999998,-0.0032089519433683078,0.021309989364222726,0.07839539595625523,-0.027379421589410518,0.13535589197030506,0.0773187732096065,0.006952058807444883,0.0009343103697834823,-0.010065841705677717,-0.0015520689557170352,0.049365777269593285,-0.027623523829734094
-0.03490658503988659,0.34417892849328174,0.15917402778188286,7.714564666666666,-0.04086104166666667,-2.705000958333333,-0.0032089519433683078,0.021309989364222726,0.07839539595625523,-0.027379421589410518,0.13535589197030506,0.0773187732096065,0.005494127972959902,-0.0001681938917048272,-0.01139826900050442,-0.034171595826122315,0.024238833031832684,-0.019347293535443465
-0.046076692252650306,0.34417892849328174,0.182212373908208,7.788114541666666,-0.08989429166666667,-2.655967708333333,-0.0032089519433683078,0.021309989364222726,0.07839539595625523,-0.027379421589410518,0.13535589197030506,0.0773187732096065,0.0033124677247240233,-0.005572724176192803,-0.008569195821426836,-0.06287155489378148,0.06891886699131845,0.0013470647965504211
-0.05235987755982988,0.3553490357060455,0.1996656664281513,7.9188698749999995,-0.22882183333333334,-2.6477955,-0.0032089519433683078,0.021309989364222726,0.07839539595625523,-0.027379421589410518,0.13535589197030506,0.0773187732096065,0.0008009102535065318,-0.0038279229184955328,-0.009802276235547252,-0.07912966143547351,0.023445019768605847,0.05061461662578207
-0.05375614096142535,0.36302848441482055,0.2192133540504878,8.082314041666667,-0.2778550833333333,-2.7376897916666665,-0.0032089519433683078,0.021309989364222726,0.07839539595625523,-0.027379421589410518,0.13535589197030506,0.0773187732096065,-0.0008808350197660628,-0.007091439136500636,-0.007964281371713143,-0.01368741245912728,-0.009390058678497779,0.03460179293054729
-0.05235987755982988,0.3769911184307752,0.23527038316883564,8.115002875,-0.26151066666666667,-2.7948952499999997,-0.0032089519433683078,0.021309989364222726,0.07839539595625523,-0.027379421589410518,0.13535589197030506,0.0773187732096065,-0.004105813517101797,-0.010643292932300088,-0.00462455780059043,0.03140547480654758,-0.04248803019376061,0.038813181593912095
-0.0439822971502571,0.39793506945470714,0.24504422698000386,8.057797416666666,-0.17978858333333333,-2.8602729166666667,-0.0032089519433683078,0.021309989364222726,0.07839539595625523,-0.027379421589410518,0.13535589197030506,0.0773187732096065,-0.0049582103413054225,-0.0034819134786348268,0.0031816281713011357,0.05216528982193452,-0.04653873453027889,0.05972911396883977
-0.03420845333908886,0.40491638646268446,0.23876104167282428,7.959730916666666,-0.08989429166666667,-2.966511625,-0.0032089519433683078,0.021309989364222726,0.07839539595625523,-0.027379421589410518,0.13535589197030506,0.0773187732096065,-0.0031322452458615413,0.0018930199298199189,0.007443081733697635,0.06038712539038786,-0.05462680930179405,0.014531695376543578
-0.02722713633111154,0.40142572795869574,0.2241002759560719,7.84532,0.016344416666666667,-2.982856041666666,-0.0032089519433683078,0.021309989364222726,0.07839539595625523,-0.027379421589410518,0.13535589197030506,0.0773187732096065,-0.004114499841448429,0.0049249607651651395,0.006863551407366258,0.10543193475664311,-0.013346913553346098,0.0060139454113655325
-0.019547687622336492,0.3909537524467298,0.210835773640915,7.641014791666667,0.04086104166666667,-2.982856041666666,-0.0032089519433683078,0.021309989364222726,0.07839539595625523,-0.027379421589410518,0.13535589197030506,0.0773187732096065,-0.005654805143763373,0.006016574116303463,0.008999849140599406,-0.20615649141314954,-0.3337061141149681,-0.6726131295624089
-0.00767944870877505,0.37768925013157295,0.19338248112097173,7.559292708333333,0.0,-2.999200458333333,-0.0032089519433683078,0.021309989364222726,0.07839539595625523,-0.027379421589410518,0.13535589197030506,0.0773187732096065,-0.004763158522262245,0.007291075258737804,0.011425292409218274,-0.001072246312130542,-0.012863614921969885,0.0013467345739664265
0.0020943951023931952,0.36302848441482055,0.1710422666954443,7.567464916666665,0.024516625,-2.99102825,-0.0032089519433683078,0.021309989364222726,0.07839539595625523,-0.027379421589410518,0.13535589197030506,0.0773187732096065,-0.007659865493567089,0.004139259389072298,0.011475559768021037,-0.005234367166019466,0.02419494861193493,0.013628660612378569
0.017453292519943295,0.35465090400524774,0.14800392056911915,7.583809333333333,-0.024516625,-3.0073726666666665,-0.0032089519433683078,0.021309989364222726,0.07839539595625523,-0.027379421589410518,0.13535589197030506,0.0773187732096065,-0.00815320268372197,0.0012167178855566616,0.012806096038448444,-0.0013119061899926389,0.02870460017011203,-0.007152927341482944
0.033510321638291124,0.3518583772020568,0.12217304763960307,7.591981541666666,-0.08172208333333333,-2.982856041666666,-0.0032089519433683078,0.021309989364222726,0.07839539595625523,-0.027379421589410518,0.13535589197030506,0.0773187732096065,-0.004809439254227388,0.0005695551048593131,0.013131854824698806,0.04370595499860327,-0.0363210587143104,-0.03176567671721706
0.04328416544945937,0.3511602455012591,0.09704030641088471,7.5102594583333335,-0.008172208333333333,-2.9093061666666666,-0.0032089519433683078,0.021309989364222726,0.07839539595625523,-0.027379421589410518,0.13535589197030506,0.0773187732096065,-0.004006385830343405,-2.417699166008382e-05,0.009738529684022713,0.12531976899271274,-0.01957393447019851,-0.06850791156073054
0.05166174585903216,0.3511602455012591,0.07749261878854824,7.265093208333333,0.032688833333333334,-2.7622064166666664,-0.0032089519433683078,0.021309989364222726,0.07839539595625523,-0.027379421589410518,0.13535589197030506,0.0773187732096065,-0.000543776990608181,0.0001797313857378097,0.009279163417429992,0.14562422348765997,-0.00690859845411472,-0.048537049547633285
0.05235987755982988,0.35046211380046133,0.05864306286700947,6.979065916666666,0.04903325,-2.655967708333333,-0.0032089519433683078,0.021309989364222726,0.07839539595625523,-0.027379421589410518,0.13535589197030506,0.0773187732096065,0.0020185737267380916,0.005250484902947219,0.006610826928917855,0.06370159537183133,0.0053724290939612925,0.000398426554800994
0.048869219055841226,0.3399901382884954,0.046076692252650306,6.856482791666667,0.04086104166666667,-2.6477955,-0.0032089519433683078,0.021309989364222726,0.07839539595625523,-0.027379421589410518,0.13535589197030506,0.0773187732096065,0.006234552598542312,0.006185090236005821,0.007814005500045197,0.08817344415744884,0.010057216957765463,-0.044957546917469796
0.03630284844148206,0.3274237676741362,0.0307177948351002,6.684866416666666,0.024516625,-2.549729,-0.0032089519433683078,0.021309989364222726,0.07839539595625523,-0.027379421589410518,0.13535589197030506,0.0773187732096065,0.007521117684877537,0.0005341419302043635,0.0038490105242110365,-0.06895585144031806,-0.32093684616076384,-0.6242983209202038
0.021642082724729686,0.3246312408709453,0.023736477827122883,6.537766666666666,-0.032688833333333334,-2.459834708333333,-0.0032089519433683078,0.021309989364222726,0.07839539595625523,-0.027379421589410518,0.13535589197030506,0.0773187732096065,0.008349242105708681,0.004221847886218527,-0.0012518911107337696,0.05961085644161647,0.042961302573276704,-0.020833775800927413
0.004886921905584123,0.3162536604613725,0.02652900463031381,6.42335575,-0.11441091666666667,-2.4108014583333333,-0.0032089519433683078,0.021309989364222726,0.07839539595625523,-0.027379421589410518,0.13535589197030506,0.0773187732096065,0.006820542426138893,-0.002203922546039653,-0.004104810481677633,0.055117165629460674,0.026569073031571203,-0.04548904172226731
-0.008377580409572781,0.3204424506661589,0.03490658503988659,6.317117041666666,-0.16344416666666667,-2.3127349583333334,-0.0032089519433683078,0.021309989364222726,0.07839539595625523,-0.027379421589410518,0.13535589197030506,0.0773187732096065,0.0030079863673288503,0.0016291526731107891,-0.005017399917779782,0.05928547745044504,0.10001478685519899,-0.09467708387971065
-0.014660765716752367,0.31695179216217023,0.04468042885105484,6.202706124999999,-0.35957716666666667,-2.1166019583333333,-0.0032089519433683078,0.021309989364222726,0.07839539595625523,-0.027379421589410518,0.13535589197030506,0.0773187732096065,0.004205527791144454,0.0038954419076105283,-0.005728940727151698,-0.014477079929272083,0.09188469584829614,-0.041597663443936166
-0.023038346126325153,0.30927234345339516,0.057246799465414,6.235394958333333,-0.53936575,-2.0267076666666664,-0.0032089519433683078,0.021309989364222726,0.07839539595625523,-0.027379421589410518,0.13535589197030506,0.0773187732096065,-0.00036870013779094377,0.0006256978408935922,-0.006569389436131624,-0.026851709300804123,-0.006550062830499551,-0.021212582391306446
-0.02234021442552742,0.3078760800517997,0.07051130178057091,6.292600416666667,-0.5230213333333333,-1.9776744166666664,-0.0032089519433683078,0.021309989364222726,0.07839539595625523,-0.027379421589410518,0.13535589197030506,0.0773187732096065,-0.0020342913565142675,0.004886764645738383,-0.007625288432940502,0.009903481294990855,0.0014569767395535265,-0.04165630814581249
-0.01815142422074103,0.2981022362406315,0.08587019919812101,6.276256,-0.5230213333333333,-1.887780125,-0.0032089519433683078,0.021309989364222726,0.07839539595625523,-0.027379421589410518,0.13535589197030506,0.0773187732096065,-0.0006930272133296506,0.0024692890187115618,-0.00620368966691334,-0.022818859992459726,-0.0641191305304498,-0.02948135462138206
-0.016755160819145562,0.2932153143350474,0.09843656981248018,6.32528925,-0.392266,-1.8224024583333331,-0.0032089519433683078,0.021309989364222726,0.07839539595625523,-0.027379421589410518,0.13535589197030506,0.0773187732096065,-0.0007193013554388564,0.007391745292177577,-0.004116734372033667,0.009547789690134482,-0.08880227743292674,-0.009258533073059072
-0.0153588974175501,0.2778564169174973,0.10681415022205297,6.3089448333333324,-0.21247741666666667,-1.7978858333333332,-0.0032089519433683078,0.021309989364222726,0.07839539595625523,-0.027379421589410518,0.13535589197030506,0.0773187732096065,-0.000978225864702439,0.00891939498457682,3.904791581797375e-05,0.017813672516860134,-0.0807512916602841,-0.013605912761029739
-0.012566370614359173,0.260403124397554,0.10681415022205297,6.276256,-0.04903325,-1.765197,-0.0032089519433683078,0.021309989364222726,0.07839539595625523,-0.027379421589410518,0.13535589197030506,0.0773187732096065,0.0034066720865123905,0.004384800743845553,0.0027526532854380854,-0.029584462099579018,-0.4022513936137777,-0.5939207278899558
-0.019547687622336492,0.249931148885588,0.10192722831646883,6.251739374999999,-0.008172208333333333,-1.6998193333333333,-0.0032089519433683078,0.021309989364222726,0.07839539595625523,-0.027379421589410518,0.13535589197030506,0.0773187732096065,0.0006174395559786259,0.010113798547701369,0.005214544659005474,0.013711045718013242,-0.015293073180351042,0.0063684090065602005
-0.020943951023931952,0.22968532956245377,0.09215338450530061,6.22722275,0.024516625,-1.7079915416666664,-0.0032089519433683078,0.021309989364222726,0.07839539595625523,-0.027379421589410518,0.13535589197030506,0.0773187732096065,0.0011352904756391272,0.005831472186837261,0.005695656998776221,0.03402682476120674,-0.031292214799098786,0.005866485581110434
-0.023038346126325153,0.21781709064889232,0.08098327729253688,6.161845083333333,0.08989429166666667,-1.7161637499999998,-0.0032089519433683078,0.021309989364222726,0.07839539595625523,-0.027379421589410518,0.13535589197030506,0.0773187732096065,0.0019727735246222395,0.008554391858729221,0.0078490322143907,0.05412615129435446,-0.035164265005681664,-0.0064985039371696
-0.02652900463031381,0.20036379812894903,0.06562437987498679,6.055606375,0.16344416666666667,-1.6998193333333333,-0.0032089519433683078,0.021309989364222726,0.07839539595625523,-0.027379421589410518,0.13535589197030506,0.0773187732096065,0.0021045620226867586,0.006662503459547551,0.009958718574584819,0.04179688519614889,-0.07177090573900853,-0.0026497592810239136
-0.0307177948351002,0.18709929581379212,0.046076692252650306,5.973884291666666,0.3105439166666667,-1.6916471249999998,-0.0032089519433683078,0.021309989364222726,0.07839539595625523,-0.027379421589410518,0.13535589197030506,0.0773187732096065,0.006892676488648338,0.010781030092710399,0.009242496698841434,0.02965524897024486,-0.08777774464945273,0.005189968719865355
-0.04468042885105484,0.16545721308906244,0.027925268031909273,5.916678833333333,0.4903325,-1.6998193333333333,-0.0032089519433683078,0.021309989364222726,0.07839539595625523,-0.027379421589410518,0.13535589197030506,0.0773187732096065,0.007392183915539482,0.009318361068062199,0.008225854968633229,0.04990860344033974,-0.005815124505962442,-0.007347930172582966
-0.059341194567807204,0.1466076571675237,0.01117010721276371,5.818612333333333,0.5066769166666666,-1.6834749166666665,-0.0032089519433683078,0.021309989364222726,0.07839539595625523,-0.027379421589410518,0.13535589197030506,0.0773187732096065,0.007813280623487658,0.009920693410079204,0.00752516074476096,-0.02373076586630794,0.03964590540605714,0.004674958101696759
-0.0747000919853573,0.1270599695451872,-0.003490658503988659,5.867645583333333,0.43312704166666666,-1.6916471249999998,-0.0032089519433683078,0.021309989364222726,0.07839539595625523,-0.027379421589410518,0.13535589197030506,0.0773187732096065,0.00550470865069659,0.007831210131530248,0.005659081425106409,-0.011675757056688763,0.051940701577994575,-0.0038458784423830703
-0.08587019919812101,0.1117010721276371,-0.014660765716752367,5.892162208333333,0.3350605416666666,-1.6834749166666665,-0.0032089519433683078,0.021309989364222726,0.07839539595625523,-0.027379421589410518,0.13535589197030506,0.0773187732096065,0.0026754896175824935,0.007016554100834942,0.008804993366306331,0.004947750270647285,0.06862176742596904,0.01235082251805045
-0.09145525280450287,0.09704030641088471,-0.032114058236695664,5.88399,0.20430520833333332,-1.7079915416666664,-0.0032089519433683078,0.021309989364222726,0.07839539595625523,-0.027379421589410518,0.13535589197030506,0.0773187732096065,0.0010127161975092554,0.006971673453927932,0.003998781248511788,-0.024058406504984902,0.04851040094122269,0.036488907290921885
-0.09285151620609833,0.08307767239493008,-0.039793506945470715,5.93302325,0.11441091666666667,-1.7815414166666665,-0.0032089519433683078,0.021309989364222726,0.07839539595625523,-0.027379421589410518,0.13535589197030506,0.0773187732096065,0.0011317709441727624,0.004244322722079338,-7.59798799202552e-05,0.06488200990705073,-0.38355065813305766,-0.5344587311605268
-0.09494591130849153,0.07260569688296412,-0.03839724354387525,5.916678833333333,0.07354987499999999,-1.838746875,-0.0032089519433683078,0.021309989364222726,0.07839539595625523,-0.027379421589410518,0.13535589197030506,0.0773187732096065,0.00032075100018071523,0.007976015032725246,-0.0034655286087908865,0.024891511867498026,-0.0210525199693003,-0.025158070633373095
-0.09564404300928926,0.05585053606381855,-0.031415926535897934,5.867645583333333,0.122583125,-1.7897136249999999,-0.0032089519433683078,0.021309989364222726,0.07839539595625523,-0.027379421589410518,0.13535589197030506,0.0773187732096065,0.0004896081172391001,0.004073526250791497,-0.001759243543958589,0.03751799418305112,0.03598687175495001,-0.021224951281567875
-0.09634217471008698,0.04817108735504349,-0.02722713633111154,5.794095708333333,0.057205458333333334,-1.7488525833333333,-0.0032089519433683078,0.021309989364222726,0.07839539595625523,-0.027379421589410518,0.13535589197030506,0.0773187732096065,-0.0017327239911772074,0.009350780935896849,-0.0030797133864412006,-0.007914230595062893,0.06457845398433959,-0.03363598514698805
-0.09285151620609833,0.029321531433504733,-0.020943951023931952,5.8104401249999995,-0.06537766666666667,-1.6834749166666665,-0.0032089519433683078,0.021309989364222726,0.07839539595625523,-0.027379421589410518,0.13535589197030506,0.0773187732096065,-0.002672967815880013,0.009373292525659034,-0.0048920510273505495,0.004379299292287,0.027623588499748657,-0.03394013899655278
-0.08726646259971647,0.010471975511965976,-0.01117010721276371,5.802267916666667,-0.11441091666666667,-1.61809725,-0.0032089519433683078,0.021309989364222726,0.07839539595625523,-0.027379421589410518,0.13535589197030506,0.0773187732096065,-0.004230507118042078,0.007997360548459448,-0.0021951779057023655,-0.015987525645932477,0.023492682432183245,-0.04237230625035038
-0.07888888219014369,-0.005585053606381855,-0.006283185307179587,5.834956749999999,-0.15527195833333335,-1.5363751666666667,-0.0032089519433683078,0.021309989364222726,0.07839539595625523,-0.027379421589410518,0.13535589197030506,0.0773187732096065,-0.004744927052656716,0.009416685236791492,-0.0006818578711433686,-0.06505394401320665,0.011026083553926471,-0.04699289824236632
-0.06981317007977318,-0.024434609527920613,-0.004886921905584123,5.965712083333332,-0.17161637500000002,-1.4464808749999998,-0.0032089519433683078,0.021309989364222726,0.07839539595625523,-0.027379421589410518,0.13535589197030506,0.0773187732096065,-0.005385294160968611,0.009422098014831057,-0.0005398455646401482,-0.012110807645231265,-0.01349792379210075,-0.03475554511732295
-0.05864306286700947,-0.04328416544945937,-0.0041887902047863905,5.990228708333333,-0.13892754166666665,-1.3811032083333332,-0.0032089519433683078,0.021309989364222726,0.07839539595625523,-0.027379421589410518,0.13535589197030506,0.0773187732096065,-0.003962801769379388,0.00428604124942631,0.0017219668810018,-0.00392179677505653,-0.0381730648479478,-0.02671075820043425
-0.050963614158234416,-0.05235987755982988,-0.006981317007977318,5.998400916666666,-0.057205458333333334,-1.3320699583333333,-0.0032089519433683078,0.021309989364222726,0.07839539595625523,-0.027379421589410518,0.13535589197030506,0.0773187732096065,-0.004662344351257323,0.003279828184189687,0.006531939937934217,-0.028627700720938124,-0.013365438597889415,0.00577621899184779
-0.041189770347066175,-0.05864306286700947,-0.02024581932313422,6.055606375,-0.024516625,-1.348414375,-0.0032089519433683078,0.021309989364222726,0.07839539595625523,-0.027379421589410518,0.13535589197030506,0.0773187732096065,0.00032750870615669086,0.00622467065027662,0.00871125512134763,0.004150907122326266,-0.029587140879895765,0.04647407734822328
-0.041887902047863905,-0.07120943348136866,-0.03700098014227979,6.047434166666666,0.04086104166666667,-1.4464808749999998,-0.0032089519433683078,0.021309989364222726,0.07839539595625523,-0.027379421589410518,0.13535589197030506,0.0773187732096065,0.002556980152051675,0.0073162824736492564,0.008349554568453897,0.02846444485695019,-0.004751944552438379,-0.0027996589212669672
-0.04677482395344803,-0.08587019919812101,-0.05305800926062762,5.990228708333333,0.057205458333333334,-1.4464808749999998,-0.0032089519433683078,0.021309989364222726,0.07839539595625523,-0.027379421589410518,0.13535589197030506,0.0773187732096065,0.000566235879041765,0.004451721222054492,0.003683291179744093,0.0286225342816942,0.003506803703899667,0.06664679770398312
-0.047472955654245766,-0.09494591130849153,-0.06073745796940267,5.93302325,0.057205458333333334,-1.5854084166666664,-0.0032089519433683078,0.021309989364222726,0.07839539595625523,-0.027379421589410518,0.13535589197030506,0.0773187732096065,0.00046354962329731416,0.007269504727114291,0.004853403476385702,-0.032779896028046554,-0.032966444846976625,0.0623387955817436
-0.048869219055841226,-0.1096066770252439,-0.07051130178057091,5.998400916666666,0.13075533333333333,-1.7161637499999998,-0.0032089519433683078,0.021309989364222726,0.07839539595625523,-0.027379421589410518,0.13535589197030506,0.0773187732096065,0.0026127076513177442,0.009047833907663536,0.0034538866177306047,0.0035232146470324057,-0.028910277534821706,0.04160959042351647
-0.05375614096142535,-0.12775810124598494,-0.0767944870877505,5.990228708333333,0.196133,-1.8060580416666667,-0.0032089519433683078,0.021309989364222726,0.07839539595625523,-0.027379421589410518,0.13535589197030506,0.0773187732096065,0.0018204511924201955,0.006270578392051657,0.0009559483157406339,-0.045523001297787836,0.016391005989260177,0.07001772673846351
-0.057246799465414,-0.14032447186034408,-0.07819075048934597,6.0801229999999995,0.17161637500000002,-1.9531577916666665,-0.0032089519433683078,0.021309989364222726,0.07839539595625523,-0.027379421589410518,0.13535589197030506,0.0773187732096065,0.003223115400655595,0.0062413435298977644,0.000359987867937703,-0.06172032785365497,0.04481376461327823,0.04934672226491465
-0.0635299847725936,-0.15289084247470325,-0.07888888219014369,6.202706124999999,0.08989429166666667,-2.0593964999999996,-0.0032089519433683078,0.021309989364222726,0.07839539595625523,-0.027379421589410518,0.13535589197030506,0.0773187732096065,-0.0009193516959301249,0.0037274901387038943,7.785763195997858e-05,-0.05781083153509716,0.02883005315021762,-0.008198799889949381
-0.06213372137099814,-0.1605702911834783,-0.07888888219014369,6.317117041666666,0.04086104166666667,-2.0512242916666668,-0.0032089519433683078,0.021309989364222726,0.07839539595625523,-0.027379421589410518,0.13535589197030506,0.0773187732096065,-0.0004445473800495605,0.0038687855800319847,-0.004133750483165364,-0.041522562841945665,0.036742979320776255,-0.0327924862070463
-0.06073745796940267,-0.16824973989225336,-0.07051130178057091,6.398839124999999,-0.024516625,-1.9940188333333333,-0.0032089519433683078,0.021309989364222726,0.07839539595625523,-0.027379421589410518,0.13535589197030506,0.0773187732096065,-0.00022360173206509206,0.005074294547712158,-0.0041040084762836585,-0.09048685011159174,0.05306620916849972,-0.016717014388179973
-0.060039326268604934,-0.17872171540421936,-0.06213372137099814,6.578627708333332,-0.122583125,-1.9695022083333333,-0.0032089519433683078,0.021309989364222726,0.07839539595625523,-0.027379421589410518,0.13535589197030506,0.0773187732096065,-0.0036361604789486367,0.006255636461144001,-0.008940312853496302,-0.04974251496168136,-0.02069758656989548,-0.029164760585563217
-0.05305800926062762,-0.19128808601857852,-0.0439822971502571,6.676694208333332,-0.07354987499999999,-1.9204689583333332,-0.0032089519433683078,0.021309989364222726,0.07839539595625523,-0.027379421589410518,0.13535589197030506,0.0773187732096065,-0.004221513589429397,0.006639260691885167,-0.009366708227295855,-0.0249577345001774,0.0033935871921707585,-0.09061280124349079
-0.04468042885105484,-0.20455258833373544,-0.025132741228718346,6.725727458333332,-0.07354987499999999,-1.7488525833333333,-0.0032089519433683078,0.021309989364222726,0.07839539595625523,-0.027379421589410518,0.13535589197030506,0.0773187732096065,-0.002540623451336558,0.0005469590879287765,-0.011493152777584293,-0.06604408191544674,-0.05000234765783672,-0.06653051629696863
-0.039793506945470715,-0.2059488517353309,-0.0020943951023931952,6.856482791666667,0.032688833333333334,-1.6262694583333333,-0.0032089519433683078,0.021309989364222726,0.07839539595625523,-0.027379421589410518,0.13535589197030506,0.0773187732096065,0.0003312374077099203,0.006280735668541432,-0.0138616222064141,-0.03336232558144359,-0.038276725236722174,-0.06645640938518682
-0.039793506945470715,-0.21851522234969004,0.02583087292951608,6.921860458333333,0.11441091666666667,-1.5036863333333332,-0.0032089519433683078,0.021309989364222726,0.07839539595625523,-0.027379421589410518,0.13535589197030506,0.0773187732096065,-0.0012579524184119465,0.001436884906691382,-0.011009347637726184,-0.004538004792361878,-0.038602144275472886,-0.09116414196157913
-0.03769911184307752,-0.22130774915288098,0.04817108735504349,6.9300326666666665,0.196133,-1.3320699583333333,-0.0032089519433683078,0.021309989364222726,0.07839539595625523,-0.027379421589410518,0.13535589197030506,0.0773187732096065,0.002843050399637448,0.0007560977929529546,-0.007761610626849727,-0.004651094891729532,0.054830593464471285,-0.06252138157017564
-0.04328416544945937,-0.22270401255447644,0.06422811647339133,6.938204874999999,0.08989429166666667,-1.2176590416666666,-0.0032089519433683078,0.021309989364222726,0.07839539595625523,-0.027379421589410518,0.13535589197030506,0.0773187732096065,0.0002229434551559661,0.0005439165431814888,-0.007614712953122299,-0.012837819559959154,0.046693864744778386,0.01494366608484306
-0.0439822971502571,-0.2241002759560719,0.07958701389094143,6.962721499999999,0.0,-1.2585200833333332,-0.0032089519433683078,0.021309989364222726,0.07839539595625523,-0.027379421589410518,0.13535589197030506,0.0773187732096065,-0.0001312495926246236,-0.0003606422082181224,-0.00413909331082381,0.007692843448625175,0.06254684637286655,-0.01776687456759085
-0.04328416544945937,-0.2234021442552742,0.0879645943005142,6.946377083333333,-0.122583125,-1.2340034583333332,-0.0032089519433683078,0.021309989364222726,0.07839539595625523,-0.027379421589410518,0.13535589197030506,0.0773187732096065,-0.0038568391593878076,-0.0021966347955087425,-0.006073486829074246,0.03620053217419947,0.0870468921103007,0.05207178310995646
-0.03560471674068433,-0.2192133540504878,0.10053096491487339,6.872827208333333,-0.29419949999999995,-1.348414375,-0.0032089519433683078,0.021309989364222726,0.07839539595625523,-0.027379421589410518,0.13535589197030506,0.0773187732096065,-0.003777685838828368,-0.0016997123362428618,-0.0067627329614475,0.011640210686996933,0.004971110754976712,0.11711281316915875
-0.027925268031909273,-0.21572269554649914,0.11379546723003027,6.848310583333333,-0.3023717083333333,-1.593580625,-0.0032089519433683078,0.021309989364222726,0.07839539595625523,-0.027379421589410518,0.13535589197030506,0.0773187732096065,-0.0024561812992996623,0.00039283765937047683,-0.007686411501193592,0.05633177422086841,-0.003389536488467907,0.07249524686602493
-0.023038346126325153,-0.21642082724729686,0.12985249634837812,6.733899666666666,-0.29419949999999995,-1.7488525833333333,-0.0032089519433683078,0.021309989364222726,0.07839539595625523,-0.027379421589410518,0.13535589197030506,0.0773187732096065,0.0007173785578462249,0.0015365846635713866,-0.010798152429338586,0.007271986300445266,0.012709778780008849,0.07667516701802828
-0.024434609527920613,-0.2199114857512855,0.1514945790731078,6.71755525,-0.318716125,-1.9122967499999999,-0.0032089519433683078,0.021309989364222726,0.07839539595625523,-0.027379421589410518,0.13535589197030506,0.0773187732096065,-0.0001849047534695762,0.0067179530047825325,-0.003898956630408785,-0.13611809071267614,-0.0041035232129191775,0.10891437591716563
-0.023736477827122883,-0.2331759880664424,0.15917402778188286,6.987238125,-0.3105439166666667,-2.1411185833333333,-0.0032089519433683078,0.021309989364222726,0.07839539595625523,-0.027379421589410518,0.13535589197030506,0.0773187732096065,2.8255466920530184e-05,0.005378559487546529,-0.002051437548713147,-0.13195904536346179,-0.06943596691944402,0.07571768246256551
-0.023736477827122883,-0.24434609527920614,0.16336281798666924,7.2487487916666655,-0.17161637500000002,-2.3045627499999997,-0.0032089519433683078,0.021309989364222726,0.07839539595625523,-0.027379421589410518,0.13535589197030506,0.0773187732096065,0.0008000899944727876,0.000598328585501334,0.0020712576955008517,-0.10770984860860489,-0.1023171328565534,0.04311303013488512
-0.025132741228718346,-0.24504422698000386,0.15987215948268058,7.461226208333334,0.032688833333333334,-2.40262925,-0.0032089519433683078,0.021309989364222726,0.07839539595625523,-0.027379421589410518,0.13535589197030506,0.0773187732096065,-0.0029144643748832745,0.0028763775571701254,0.0018151946585503516,-0.18113279304498595,-0.1020902421884223,0.030276975359315558
-0.019547687622336492,-0.25132741228718347,0.15638150097869194,7.820803375,0.23699404166666665,-2.476179125,-0.0032089519433683078,0.021309989364222726,0.07839539595625523,-0.027379421589410518,0.13535589197030506,0.0773187732096065,-0.0029116117725493554,0.0016475492731124663,0.0004112102416257349,-0.13613216813550585,-0.08193918316130944,0.01798103652438887
-0.013264502315156905,-0.2548180707911721,0.1556833692778942,8.09048625,0.4004382083333333,-2.5252123749999997,-0.0032089519433683078,0.021309989364222726,0.07839539595625523,-0.027379421589410518,0.13535589197030506,0.0773187732096065,-0.002824896545119252,0.0014192365998164677,0.0021331288781684518,-0.09548760523033663,-0.0043832978410205435,-0.04773194009668952
-0.00767944870877505,-0.25761059759436306,0.15219271077390556,8.278447041666666,0.40861041666666664,-2.4434902916666665,-0.0032089519433683078,0.021309989364222726,0.07839539595625523,-0.027379421589410518,0.13535589197030506,0.0773187732096065,-0.0036512238830008195,-0.003941081128732676,0.002624560762015605,-0.09954039918093614,0.061054212897816665,0.013516362502576406
0.0,-0.249931148885588,0.1466076571675237,8.474580041666666,0.2860272916666666,-2.4843513333333336,-0.0032089519433683078,0.021309989364222726,0.07839539595625523,-0.027379421589410518,0.13535589197030506,0.0773187732096065,-0.00879949111787707,-0.0019811671156186967,0.0034442065050813756,-0.025840659139214385,0.07341946967530565,-0.019062706201997365
0.017453292519943295,-0.2457423586808016,0.14032447186034408,8.523613291666665,0.13892754166666665,-2.459834708333333,-0.0032089519433683078,0.021309989364222726,0.07839539595625523,-0.027379421589410518,0.13535589197030506,0.0773187732096065,-0.01291626603430732,-0.0034078655683958048,0.005815689794706461,0.04763208811173124,0.05306648907759373,-0.010621727372176596
0.04328416544945937,-0.23876104167282428,0.1291543646475804,8.425546791666665,0.032688833333333334,-2.4516625,-0.0032089519433683078,0.021309989364222726,0.07839539595625523,-0.027379421589410518,0.13535589197030506,0.0773187732096065,-0.006898670752842929,-0.0024330825059855087,0.008488589158859961,0.1130832463234503,0.016568781647490288,-0.03501662614163998
0.057246799465414,-0.23457225146803787,0.11239920382843484,8.196724958333332,0.0,-2.3944570416666666,-0.0032089519433683078,0.021309989364222726,0.07839539595625523,-0.027379421589410518,0.13535589197030506,0.0773187732096065,-0.006530296215243036,-0.004593118689806944,0.007217027563060949,0.06416672143820036,0.0002964625168089395,-0.010205250606570123
0.07051130178057091,-0.22479840765686968,0.09773843811168245,8.065969625,0.0,-2.3862848333333333,-0.0032089519433683078,0.021309989364222726,0.07839539595625523,-0.027379421589410518,0.13535589197030506,0.0773187732096065,-0.0020625909920285604,0.0008009460401582986,0.0021085500212959384,0.06002428431997284,-0.019925441853559416,-0.009979916336441203
0.0747000919853573,-0.22689280275926282,0.09354964790689606,7.9433865,0.04086104166666667,-2.378112625,-0.0032089519433683078,0.021309989364222726,0.07839539595625523,-0.027379421589410518,0.13535589197030506,0.0773187732096065,-0.004213985786457433,-0.0025642210325611163,0.0015679884124727103,0.08460883783110215,0.07398825817994621,-0.018016537848514095
0.08307767239493008,-0.22200588085367873,0.09075712110370514,7.771770125,-0.10623870833333333,-2.3535959999999996,-0.0032089519433683078,0.021309989364222726,0.07839539595625523,-0.027379421589410518,0.13535589197030506,0.0773187732096065,-0.002088988128665693,-0.0034888702824873085,-0.008043649045346954,0.011050126917332568,0.05355362955965171,0.039295914448298254
0.08726646259971647,-0.2150245638457014,0.1075122819228507,7.7472535,-0.21247741666666667,-2.4434902916666665,-0.0032089519433683078,0.021309989364222726,0.07839539595625523,-0.027379421589410518,0.13535589197030506,0.0773187732096065,-0.0012090313307269354,-0.0038106465206854435,-0.010790015485430305,-0.017623749409284236,-0.004086995910470893,0.015130525086891812
0.08936085770210968,-0.20734511513692636,0.1291543646475804,7.779942333333333,-0.20430520833333332,-2.4843513333333336,-0.0032089519433683078,0.021309989364222726,0.07839539595625523,-0.027379421589410518,0.13535589197030506,0.0773187732096065,0.001996051828982978,-0.007969451037955516,-0.009639954001941047,-0.021667802244279746,-0.045523888155544444,0.027262252921868606
0.08587019919812101,-0.19198621771937624,0.14800392056911915,7.820803375,-0.11441091666666667,-2.549729,-0.0032089519433683078,0.021309989364222726,0.07839539595625523,-0.027379421589410518,0.13535589197030506,0.0773187732096065,0.006893549141894386,-0.005878605570233789,-0.008599059729258453,-0.08277170766409242,-0.11119098640600329,0.07657905642851284
0.07190756518216637,-0.18011797880581482,0.16615534478986016,7.984247541666667,0.10623870833333333,-2.7131731666666665,-0.0032089519433683078,0.021309989364222726,0.07839539595625523,-0.027379421589410518,0.13535589197030506,0.0773187732096065,0.011372703054915652,-0.005769845573874444,-0.009890078671322938,-0.07460778285276679,-0.14414482583270014,0.02353421330562416
0.04956735075663895,-0.16824973989225336,0.18570303241219666,8.131347291666666,0.392266,-2.7703786249999998,-0.0032089519433683078,0.021309989364222726,0.07839539595625523,-0.027379421589410518,0.13535589197030506,0.0773187732096065,0.012550325468118993,-0.0022384524112603337,-0.007595133493272801,-0.04190609352551912,-0.13192325067242833,0.027865332963251707
0.024434609527920613,-0.16406094968746698,0.2017600615305445,8.213069375,0.6537766666666667,-2.8357562916666668,-0.0032089519433683078,0.021309989364222726,0.07839539595625523,-0.027379421589410518,0.13535589197030506,0.0773187732096065,0.013300820555626364,0.001214666572629588,-0.004579536410118396,-0.1151614542472836,-0.017894936457987762,-0.005036147281115172
-0.0020943951023931952,-0.1668534764906579,0.210835773640915,8.441891208333333,0.6864655000000001,-2.8357562916666668,-0.0032089519433683078,0.021309989364222726,0.07839539595625523,-0.027379421589410518,0.13535589197030506,0.0773187732096065,0.012199469138911418,0.002734027227623204,0.0018231591884917816,-0.19716267469988236,0.0024616062309942874,0.02344066391158732
-0.02652900463031381,-0.17243853009703977,0.20734511513692636,8.834157208333334,0.6782932916666666,-2.8929617499999996,-0.0032089519433683078,0.021309989364222726,0.07839539595625523,-0.027379421589410518,0.13535589197030506,0.0773187732096065,0.007437646209960761,0.0013331021860185151,0.0111183830551423,-0.16037293807569888,0.05201570400313703,-0.013527617991997174
-0.041189770347066175,-0.17523105690023066,0.1850049007113989,9.152873333333332,0.5720545833333333,-2.8766173333333334,-0.0032089519433683078,0.021309989364222726,0.07839539595625523,-0.027379421589410518,0.13535589197030506,0.0773187732096065,0.005169156821442596,-0.005499644879310193,0.015762822234533767,-0.1277478963593078,0.08105099229150446,-0.01373056709122211
-0.05166174585903216,-0.16406094968746698,0.153588974175501,9.406211791666665,0.40861041666666664,-2.8602729166666667,-0.0032089519433683078,0.021309989364222726,0.07839539595625523,-0.027379421589410518,0.13535589197030506,0.0773187732096065,-0.0027465871878648252,-0.004140618218983337,0.017933162215193105,-0.07456199464268495,0.0330070249439994,0.02757788356362733
-0.046076692252650306,-0.1556833692778942,0.11798425743481668,9.553311541666666,0.34323275000000003,-2.9256505833333333,-0.0032089519433683078,0.021309989364222726,0.07839539595625523,-0.027379421589410518,0.13535589197030506,0.0773187732096065,-0.005767240690492997,-0.005706191876184972,0.018017388078243397,0.011187506834399544,-0.03169910681149244,0.015308821403207983
-0.03420845333908886,-0.1445132620651305,0.08237954069413235,9.528794916666666,0.40861041666666664,-2.966511625,-0.0032089519433683078,0.021309989364222726,0.07839539595625523,-0.027379421589410518,0.13535589197030506,0.0773187732096065,-0.006128654016926056,-0.008496318130212255,0.019978875791358975,0.1013346235807372,0.005946148866825288,-0.0005604278183373867
-0.021642082724729686,-0.12775810124598494,0.04258603374866164,9.324489708333333,0.4004382083333333,-2.974683833333333,-0.0032089519433683078,0.021309989364222726,0.07839539595625523,-0.027379421589410518,0.13535589197030506,0.0773187732096065,-0.0033242232975367217,-0.0006124397182099173,0.018588489328741253,0.0644817633317537,0.03944455199879066,0.02428886351823484
-0.0153588974175501,-0.12636183784438945,0.005585053606381855,9.193734375,0.32688833333333334,-3.0318892916666664,-0.0032089519433683078,0.021309989364222726,0.07839539595625523,-0.027379421589410518,0.13535589197030506,0.0773187732096065,-0.005905562794192468,-0.00272821764223841,0.01737302563997599,0.12975681552947502,0.06876530854678567,0.012283001836272338
-0.003490658503988659,-0.12147491593880534,-0.028623399732707,8.932223708333334,0.196133,-3.0645781249999997,-0.0032089519433683078,0.021309989364222726,0.07839539595625523,-0.027379421589410518,0.13535589197030506,0.0773187732096065,-0.007978941068971524,-0.0016464233282369295,0.009231099474234844,0.12598901143500357,0.1671801037671938,-0.004127069025839114
0.012566370614359173,-0.11798425743481668,-0.04677482395344803,8.67888525,-0.13075533333333333,-3.0645781249999997,-0.0032089519433683078,0.021309989364222726,0.07839539595625523,-0.027379421589410518,0.13535589197030506,0.0773187732096065,-0.009585667521926923,-9.09568879266433e-05,0.00469155459118339,0.08512651910343697,0.09787395643938161,0.037112680846859834
0.032114058236695664,-0.11798425743481668,-0.056548667764616284,8.507268875,-0.318716125,-3.1463002083333333,-0.0032089519433683078,0.021309989364222726,0.07839539595625523,-0.027379421589410518,0.13535589197030506,0.0773187732096065,-0.01158058779934019,0.0012923525613374172,-0.006815926201952359,0.06468274834522554,0.028130884254177608,-0.024388861690590243
0.05515240436302082,-0.12007865253720987,-0.04258603374866164,8.376513541666666,-0.367749375,-3.1054391666666663,-0.0032089519433683078,0.021309989364222726,0.07839539595625523,-0.027379421589410518,0.13535589197030506,0.0773187732096065,-0.009829214697099901,-0.005782092917429722,-0.01334164798087519,0.07296230685807412,-0.0418835736735487,-0.028158117787966726
0.0747000919853573,-0.10890854532444616,-0.0153588974175501,8.229413791666666,-0.2778550833333333,-3.0564059166666664,-0.0032089519433683078,0.021309989364222726,0.07839539595625523,-0.027379421589410518,0.13535589197030506,0.0773187732096065,-0.007763097172859686,-0.004243609527993518,-0.027915328424308872,-0.04159280457594377,-0.06746814883241743,-0.01573070843487124
0.09075712110370514,-0.10053096491487339,0.04049163864626844,8.311135875,-0.13892754166666665,-3.0318892916666664,-0.0032089519433683078,0.021309989364222726,0.07839539595625523,-0.027379421589410518,0.13535589197030506,0.0773187732096065,-0.0015613561085719675,-0.0066293034760716045,-0.026142107951004287,-0.06594640026809571,-0.06451618139082359,0.004934253368696629
0.09354964790689606,-0.08726646259971647,0.09285151620609833,8.441891208333333,-0.008172208333333333,-3.0482337083333335,-0.0032089519433683078,0.021309989364222726,0.07839539595625523,-0.027379421589410518,0.13535589197030506,0.0773187732096065,0.0022525744954940783,-0.005948721071080855,-0.02824094569507272,-0.025032235521621357,-0.045303929667615546,-0.011230633850369291
0.08936085770210968,-0.07609635538695278,0.15009831567151233,8.490924458333334,0.08172208333333333,-3.0318892916666664,-0.0032089519433683078,0.021309989364222726,0.07839539595625523,-0.027379421589410518,0.13535589197030506,0.0773187732096065,0.004200895077735033,-0.007315396720054114,-0.020732143165041374,-0.0861518731427464,0.05171219192540905,0.013394264339463694
0.08098327729253688,-0.06073745796940267,0.19128808601857852,8.662540833333333,-0.024516625,-3.0645781249999997,-0.0032089519433683078,0.021309989364222726,0.07839539595625523,-0.027379421589410518,0.13535589197030506,0.0773187732096065,0.0024688436874462797,-0.007688237609224509,-0.011900835324462714,-0.061708026889732356,0.03045325228603764,0.0016240513119584342
0.07609635538695278,-0.046076692252650306,0.21572269554649914,8.785123958333333,-0.08989429166666667,-3.0727503333333335,-0.0032089519433683078,0.021309989364222726,0.07839539595625523,-0.027379421589410518,0.13535589197030506,0.0773187732096065,0.004055335659575718,-0.003487260013025315,-0.002753307662545609,-0.04126079474903459,0.03435447493281548,0.0017367294055018819
0.06771877497737998,-0.039095375244672985,0.22130774915288098,8.866846041666665,-0.16344416666666667,-3.0809225416666663,-0.0032089519433683078,0.021309989364222726,0.07839539595625523,-0.027379421589410518,0.13535589197030506,0.0773187732096065,0.007464976009339778,-0.0015414815854786813,0.010139891402406728,-0.10242450247679855,-0.0184644344962731,0.038783054722330644
0.05305800926062762,-0.03630284844148206,0.20106192982974677,9.07115125,-0.13075533333333333,-3.162644625,-0.0032089519433683078,0.021309989364222726,0.07839539595625523,-0.027379421589410518,0.13535589197030506,0.0773187732096065,0.0065684225266910085,0.0009399196618313759,0.01262614174674831,-0.13921583476579424,-0.04249514657501891,0.07526776461478596
0.039793506945470715,-0.03839724354387525,0.1759291886010284,9.349006333333334,-0.04903325,-3.317916583333333,-0.0032089519433683078,0.021309989364222726,0.07839539595625523,-0.027379421589410518,0.13535589197030506,0.0773187732096065,0.007887940170174917,-0.0003242190726764097,0.019062663547623076,-0.012534999732034594,-0.04191540346380957,0.06317645117416539
0.024434609527920613,-0.03769911184307752,0.13823007675795088,9.373522958333332,0.032688833333333334,-3.4486719166666666,-0.0032089519433683078,0.021309989364222726,0.07839539595625523,-0.027379421589410518,0.13535589197030506,0.0773187732096065,0.004657261974248112,-0.0022075296128106596,0.021157903867289635,-0.02884304959406123,0.08210616396026156,0.0017580008706372335
0.0153588974175501,-0.033510321638291124,0.09564404300928926,9.430728416666666,-0.13075533333333333,-3.4568441249999995,-0.0032089519433683078,0.021309989364222726,0.07839539595625523,-0.027379421589410518,0.13535589197030506,0.0773187732096065,-0.0006724202850408007,0.0011010889857389732,0.018623791616195567,0.016146132715045818,0.09920140385526972,0.05920734395862881
0.016755160819145562,-0.03560471674068433,0.05864306286700947,9.398039583333333,-0.32688833333333334,-3.5794272499999997,-0.0032089519433683078,0.021309989364222726,0.07839539595625523,-0.027379421589410518,0.13535589197030506,0.0773187732096065,-0.004207579342306149,2.8112828202574207e-05,0.009779319865943626,0.02839586984880017,0.07115199171326095,0.026404520455251136
0.025132741228718346,-0.03560471674068433,0.039793506945470715,9.340834124999999,-0.465815875,-3.6366327083333334,-0.0032089519433683078,0.021309989364222726,0.07839539595625523,-0.027379421589410518,0.13535589197030506,0.0773187732096065,-0.013467536690162178,-0.00574552135283072,0.003598958320809997,0.09391983209279434,0.05506839044947633,0.0225140205858282
0.05166174585903216,-0.024434609527920613,0.032812189937493394,9.152873333333332,-0.5720545833333333,-3.6856659583333333,-0.0032089519433683078,0.021309989364222726,0.07839539595625523,-0.027379421589410518,0.13535589197030506,0.0773187732096065,-0.01084170103083173,-0.002519619543461974,0.0035054288237298743,0.06949515683582176,0.038478456638078674,0.05956225249748875
0.07400196028455958,-0.01884955592153876,0.02583087292951608,9.013945791666666,-0.6456044583333332,-3.8082490833333327,-0.0032089519433683078,0.021309989364222726,0.07839539595625523,-0.027379421589410518,0.13535589197030506,0.0773187732096065,-0.0118331848267662,0.0002500489249363413,-0.0009644838409554007,0.07754102926254099,-0.04331419140029304,0.026929513773938898
0.09773843811168245,-0.019547687622336492,0.027925268031909273,8.858673833333333,-0.5557101666666666,-3.8654545416666664,-0.0032089519433683078,0.021309989364222726,0.07839539595625523,-0.027379421589410518,0.13535589197030506,0.0773187732096065,-0.010380243530826228,0.0027225881195643373,-0.005338711316832006,0.11430245892656413,-0.05190827801536017,-0.03441994066071991
0.11868238913561441,-0.025132741228718346,0.039095375244672985,8.629852,-0.4494714583333333,-3.800076875,-0.0032089519433683078,0.021309989364222726,0.07839539595625523,-0.027379421589410518,0.13535589197030506,0.0773187732096065,-0.007860175464175207,0.0033307295036071683,-0.008025043162253638,0.05714006690265343,-0.023816331124908625,-0.026228529422410177
0.1340412865531645,-0.032114058236695664,0.05515240436302082,8.515441083333332,-0.4004382083333333,-3.751043625,-0.0032089519433683078,0.021309989364222726,0.07839539595625523,-0.027379421589410518,0.13535589197030506,0.0773187732096065,-0.0066556447460887165,0.006574172746112111,-0.01279078729582537,-0.024718644833396405,-0.05690839423062739,-0.051109984791491044
0.14730578886832138,-0.04537856055185257,0.08098327729253688,8.564474333333333,-0.2860272916666666,-3.6529771249999996,-0.0032089519433683078,0.021309989364222726,0.07839539595625523,-0.027379421589410518,0.13535589197030506,0.0773187732096065,-0.0035002117962446297,0.007485317958823084,-0.01736275310388484,-0.049427807779400215,-0.04945565479783768,-0.09637562138390277
0.15428710587629874,-0.060039326268604934,0.11588986233242347,8.662540833333333,-0.18796079166666665,-3.4650163333333333,-0.0032089519433683078,0.021309989364222726,0.07839539595625523,-0.027379421589410518,0.13535589197030506,0.0773187732096065,-0.0016145889956090112,0.0025388099726436335,-0.013362624467671485,-0.09440504447499774,-0.0012173997136470667,-0.10476129819246553
0.15777776438028737,-0.06562437987498679,0.143116998663535,8.850501625,-0.18796079166666665,-3.260711125,-0.0032089519433683078,0.021309989364222726,0.07839539595625523,-0.027379421589410518,0.13535589197030506,0.0773187732096065,0.00021883147708798908,0.0014906619912909693,-0.010679399815448836,-0.17624267451549477,-0.06310087132079771,-0.06007898372231935
0.15777776438028737,-0.06841690667817772,0.16406094968746698,9.201906583333333,-0.06537766666666667,-3.1463002083333333,-0.0032089519433683078,0.021309989364222726,0.07839539595625523,-0.027379421589410518,0.13535589197030506,0.0773187732096065,0.0019428619724827264,-0.0025527244165189345,-0.003686609881027902,-0.0943370086796528,-0.05513470991465078,-0.05188566227111371
0.153588974175501,-0.0635299847725936,0.17174039839624203,9.389867375,0.04086104166666667,-3.0482337083333335,-0.0032089519433683078,0.021309989364222726,0.07839539595625523,-0.027379421589410518,0.13535589197030506,0.0773187732096065,0.0074597429371745915,-0.006326342384851922,0.006316330760545994,-0.01655951342940033,-0.06309920310802791,-0.07615183518388002
0.13892820845874865,-0.050963614158234416,0.15917402778188286,9.422556208333333,0.16344416666666667,-2.9011339583333333,-0.0032089519433683078,0.021309989364222726,0.07839539595625523,-0.027379421589410518,0.13535589197030506,0.0773187732096065,0.014202720430847712,-0.00037459747392853233,0.009622631981165336,-0.01660886919365856,-0.009614379766649379,-0.03531947439318931
0.11100294042683936,-0.05026548245743669,0.14032447186034408,9.455245041666666,0.17978858333333333,-2.8357562916666668,-0.0032089519433683078,0.021309989364222726,0.07839539595625523,-0.027379421589410518,0.13535589197030506,0.0773187732096065,0.01304224835243432,0.002917463016184736,0.010654506680283627,0.03221199652099642,-0.03325213066030022,-0.02723632111946632
0.08447393579652555,-0.056548667764616284,0.11938052083641214,9.389867375,0.24516625,-2.7867230416666664,-0.0032089519433683078,0.021309989364222726,0.07839539595625523,-0.027379421589410518,0.13535589197030506,0.0773187732096065,0.01308238067717828,0.0023144991355357474,0.010740605701598455,0.07735866881620469,0.016381010198175176,0.042192410777158906
0.05864306286700947,-0.06073745796940267,0.09843656981248018,9.234595416666666,0.21247741666666667,-2.8766173333333334,-0.0032089519433683078,0.021309989364222726,0.07839539595625523,-0.027379421589410518,0.13535589197030506,0.0773187732096065,0.0146271265411577,-0.0006956155847970876,0.0063760561502315275,-0.0084040831962075,0.025131394401409057,0.1076775102824641
0.029321531433504733,-0.060039326268604934,0.08587019919812101,9.250939833333334,0.16344416666666667,-3.0972669583333334,-0.0032089519433683078,0.021309989364222726,0.07839539595625523,-0.027379421589410518,0.13535589197030506,0.0773187732096065,0.014358510743553897,0.0035749502936507837,0.0029631683257679664,0.024087847601300234,0.017289880194197638,0.0788435812298342
0.0006981317007977319,-0.06702064327658225,0.07958701389094143,9.201906583333333,0.13075533333333333,-3.260711125,-0.0032089519433683078,0.021309989364222726,0.07839539595625523,-0.027379421589410518,0.13535589197030506,0.0773187732096065,0.010075151729928613,0.003907887939839319,0.0008846693163655912,0.01571834047236685,0.11586323679482324,0.058234255208448146
-0.019547687622336492,-0.0747000919853573,0.07819075048934597,9.16921775,-0.0980665,-3.3832942499999996,-0.0032089519433683078,0.021309989364222726,0.07839539595625523,-0.027379421589410518,0.13535589197030506,0.0773187732096065,0.004831784444688068,0.004389949833438512,-0.0018751466452691344,0.019961336625337667,0.14857227989205934,0.013211427516340612
-0.028623399732707,-0.08377580409572781,0.08237954069413235,9.128356708333332,-0.392266,-3.415983083333333,-0.0032089519433683078,0.021309989364222726,0.07839539595625523,-0.027379421589410518,0.13535589197030506,0.0773187732096065,-0.0028550292487165073,0.010243478107856406,0.00012845721225156244,-0.0212370962333002,0.18115371274977657,0.02915241748366398
-0.023038346126325153,-0.10402162341886204,0.08237954069413235,9.16921775,-0.7518431666666666,-3.4813607499999994,-0.0032089519433683078,0.021309989364222726,0.07839539595625523,-0.027379421589410518,0.13535589197030506,0.0773187732096065,-0.010196522475292923,0.007510749843797252,-0.006452917720679354,-0.021401685344738745,0.10335705325173797,0.024722799911723183
-0.0027925268031909274,-0.11938052083641214,0.09494591130849153,9.210078791666666,-0.9561483749999999,-3.538566208333333,-0.0032089519433683078,0.021309989364222726,0.07839539595625523,-0.027379421589410518,0.13535589197030506,0.0773187732096065,-0.013170407348189016,0.004593803848276215,-0.01272729928383098,-0.054272020270178155,0.0047168577712174455,0.04889591827844214
0.023736477827122883,-0.1291543646475804,0.12077678423800758,9.316317499999998,-0.9643205833333333,-3.6448049166666663,-0.0032089519433683078,0.021309989364222726,0.07839539595625523,-0.027379421589410518,0.13535589197030506,0.0773187732096065,-0.011086141868525176,0.0076418174168163796,-0.010149650131989301,-0.09945673645415462,-0.04121889863849222,0.011798956555308705
0.04537856055185257,-0.14381513036433274,0.14172073526193954,9.5124505,-0.8825985,-3.67749375,-0.0032089519433683078,0.021309989364222726,0.07839539595625523,-0.027379421589410518,0.13535589197030506,0.0773187732096065,-0.013606523095900611,0.0036623501904549105,-0.012005706349545536,-0.03399835394235791,-0.10734649362896409,-0.057883395752159235
0.07330382858376185,-0.1514945790731078,0.16615534478986016,9.577828166666666,-0.6701210833333332,-3.571255041666667,-0.0032089519433683078,0.021309989364222726,0.07839539595625523,-0.027379421589410518,0.13535589197030506,0.0773187732096065,-0.0035522679264282284,-0.01034104372857312,-0.001904722451765474,2.3550563253559265,-3.2120294107251555,-3.55682859887292
0.08587019919812101,-0.15707963267948966,0.1850049007113989,9.626861416666666,-0.5230213333333333,-3.505877375,-0.0032089519433683078,0.021309989364222726,0.07839539595625523,-0.027379421589410518,0.13535589197030506,0.0773187732096065,-0.003823399432657529,0.00639834167374102,-0.0034303669748273822,-0.04632609125704582,-0.02662151991244889,-0.03808718045956658
0.09354964790689606,-0.17034413499464657,0.19198621771937624,9.716755708333332,-0.4739880833333333,-3.4404997083333333,-0.0032089519433683078,0.021309989364222726,0.07839539595625523,-0.027379421589410518,0.13535589197030506,0.0773187732096065,-0.0016295825737825164,0.007395163026025701,0.0003588126522340647,-0.02595430593487762,-0.09214152334117204,-0.03856881895861525
0.09634217471008698,-0.1850049007113989,0.19198621771937624,9.765788958333333,-0.29419949999999995,-3.3751220416666667,-0.0032089519433683078,0.021309989364222726,0.07839539595625523,-0.027379421589410518,0.13535589197030506,0.0773187732096065,0.0020534296099473056,0.0020234983259438508,0.000987531990062795,0.014817398712202978,-0.07579728896282728,-0.010059471055958133
0.09285151620609833,-0.18919369091618532,0.18989182261698306,9.733100125,-0.14709974999999997,-3.366949833333333,-0.0032089519433683078,0.021309989364222726,0.07839539595625523,-0.027379421589410518,0.13535589197030506,0.0773187732096065,0.006890134234132373,0.0032569256164006717,0.0004921752264805219,-0.0260398459270562,-0.07168635379265674,0.005887458628054667
0.07888888219014369,-0.19617500792416265,0.18919369091618532,9.782133375,-0.008172208333333333,-3.391466458333333,-0.0032089519433683078,0.021309989364222726,0.07839539595625523,-0.027379421589410518,0.13535589197030506,0.0773187732096065,0.011457043838260425,0.004545158275108434,0.0033022221046688535,0.031103895789439128,-0.13259702474259039,0.0016657549036137728
0.05585053606381855,-0.20525072003453312,0.182212373908208,9.716755708333332,0.2533384583333333,-3.4078108749999996,-0.0032089519433683078,0.021309989364222726,0.07839539595625523,-0.027379421589410518,0.13535589197030506,0.0773187732096065,0.014238472255940264,0.004570992628804268,0.0030751524187190623,-0.0016262835356841354,-0.046443823462107695,0.030137042848376285
0.027925268031909273,-0.21432643214490363,0.17662732030182612,9.716755708333332,0.34323275000000003,-3.4813607499999994,-0.0032089519433683078,0.021309989364222726,0.07839539595625523,-0.027379421589410518,0.13535589197030506,0.0773187732096065,0.018601035775199094,0.00093506383755634,0.006821893705163799,0.01875050732801155,-0.0212322385434653,0.017569254098275554
-0.009773843811168246,-0.21572269554649914,0.16336281798666924,9.675894666666666,0.3840937916666667,-3.530394,-0.0032089519433683078,0.021309989364222726,0.07839539595625523,-0.027379421589410518,0.13535589197030506,0.0773187732096065,0.01983376425364623,0.0006101997700522486,0.010561331470264019,-0.04679296670909033,0.03651972414382464,0.0749575486987678
-0.048869219055841226,-0.21711895894809458,0.1424188669627373,9.765788958333333,0.3105439166666667,-3.693838166666666,-0.0032089519433683078,0.021309989364222726,0.07839539595625523,-0.027379421589410518,0.13535589197030506,0.0773187732096065,0.016887703258682343,0.003745677006784656,0.00945360519772857,0.022561544800478162,0.06998865087374583,0.01347177443593845
-0.08307767239493008,-0.22479840765686968,0.12356931104119852,9.716755708333332,0.17161637500000002,-3.7346992083333332,-0.0032089519433683078,0.021309989364222726,0.07839539595625523,-0.027379421589410518,0.13535589197030506,0.0773187732096065,0.018101283120004308,0.0029636918656271985,0.0071816166658873115,0.01837314132904654,0.07488752978083628,-0.05195888714470958
-0.11868238913561441,-0.23108159296404923,0.1096066770252439,9.675894666666666,0.024516625,-3.6448049166666663,-0.0032089519433683078,0.021309989364222726,0.07839539595625523,-0.027379421589410518,0.13535589197030506,0.0773187732096065,0.005308431503005579,0.005948116287383269,0.004289934161906518,-0.026429252442575754,0.10821767092106328,-0.056481343455460874
-0.1291543646475804,-0.24294983187761068,0.10122909661567112,9.724927916666667,-0.18796079166666665,-3.546738416666667,-0.0032089519433683078,0.021309989364222726,0.07839539595625523,-0.027379421589410518,0.13535589197030506,0.0773187732096065,0.0020798574884397735,0.005992145332712442,0.0008780273535438014,-0.038888609240595284,0.042751436582697894,-0.04876550130225346
-0.13334315485236678,-0.2548180707911721,0.09983283321407566,9.798477791666667,-0.269682875,-3.4650163333333333,-0.0032089519433683078,0.021309989364222726,0.07839539595625523,-0.027379421589410518,0.13535589197030506,0.0773187732096065,-0.0022797826561706766,0.007634194182741528,-0.0036000968690465254,-0.042986325527608386,0.08364764317576237,-0.06535659418305516
-0.1291543646475804,-0.2701769682087222,0.10681415022205297,9.880199875,-0.43312704166666666,-3.3506054166666663,-0.0032089519433683078,0.021309989364222726,0.07839539595625523,-0.027379421589410518,0.13535589197030506,0.0773187732096065,-0.004978562596446735,0.0032736506842594216,-0.00858380905741686,-0.10842249790714141,0.0789315971716582,-0.04947492205659345
-0.11868238913561441,-0.27715828521669955,0.12426744274199628,10.092677291666664,-0.5883989999999999,-3.268883333333333,-0.0032089519433683078,0.021309989364222726,0.07839539595625523,-0.027379421589410518,0.13535589197030506,0.0773187732096065,-0.011367476350579641,0.0020179548131554976,-0.010140188198753638,-0.051155513868471544,-0.00734868177630564,-0.03331658072631056
-0.09634217471008698,-0.2813470754214859,0.1445132620651305,10.190743791666666,-0.5720545833333333,-3.219850083333333,-0.0032089519433683078,0.021309989364222726,0.07839539595625523,-0.027379421589410518,0.13535589197030506,0.0773187732096065,-0.010581839330199749,-0.0007528811988425153,-0.011181352114343958,0.0017814747818665228,-0.012143880370092537,-0.029424755194940422
-0.0747000919853573,-0.27995081201989047,0.16755160819145562,10.182571583333333,-0.5475379583333333,-3.178989041666666,-0.0032089519433683078,0.021309989364222726,0.07839539595625523,-0.027379421589410518,0.13535589197030506,0.0773187732096065,-0.009955313603042528,-0.00012045521659598159,-0.007280276688610691,-0.06759707730694282,-0.07826469139487632,0.036276547737212
-0.05515240436302082,-0.27995081201989047,0.182212373908208,10.313326916666666,-0.392266,-3.268883333333333,-0.0032089519433683078,0.021309989364222726,0.07839539595625523,-0.027379421589410518,0.13535589197030506,0.0773187732096065,-0.0058552511171074805,-0.00027982834918785385,-0.005331858890288952,0.04252366949105702,-0.11960587135107918,0.023801838025216866
-0.04328416544945937,-0.2792526803190927,0.19338248112097173,10.223432625,-0.15527195833333335,-3.334261,-0.0032089519433683078,0.021309989364222726,0.07839539595625523,-0.027379421589410518,0.13535589197030506,0.0773187732096065,-0.0004852030932970486,0.00031901059320052423,-0.0012022904248390612,0.06316363953141323,-0.0830291186762168,0.044617295890712914
-0.041887902047863905,-0.27995081201989047,0.1954768762233649,10.092677291666664,0.008172208333333333,-3.4404997083333333,-0.0032089519433683078,0.021309989364222726,0.07839539595625523,-0.027379421589410518,0.13535589197030506,0.0773187732096065,0.003429011940293678,0.004135232263242219,0.005660795165195472,0.017991295949846504,-0.05006588035329248,0.060809146568246424
-0.048869219055841226,-0.28832839242946323,0.1850049007113989,10.051816249999998,0.10623870833333333,-3.5794272499999997,-0.0032089519433683078,0.021309989364222726,0.07839539595625523,-0.027379421589410518,0.13535589197030506,0.0773187732096065,0.01003130316504609,0.003449689151212404,0.013259293254146563,0.8689267137122494,-0.47844210687969957,-0.0972842784869944
-0.06702064327658225,-0.30159289474462014,0.1626646862858715,10.010955208333332,0.13075533333333333,-3.7673880416666665,-0.0032089519433683078,0.021309989364222726,0.07839539595625523,-0.027379421589410518,0.13535589197030506,0.0773187732096065,0.008345346023589783,0.0043254875205511415,0.013080506118113929,0.013537128099162415,0.004447127405807497,0.052150397285145006
-0.08377580409572781,-0.30997047515419296,0.13683381335635544,9.978266375,0.122583125,-3.8899711666666663,-0.0032089519433683078,0.021309989364222726,0.07839539595625523,-0.027379421589410518,0.13535589197030506,0.0773187732096065,0.009989512886970718,0.0013135851802169058,0.01231083899550261,0.005079517606534798,0.041951357969159324,0.0397500580431651
-0.10332349171806432,-0.3127630019573839,0.11239920382843484,9.961921958333333,0.04086104166666667,-3.9880376666666666,-0.0032089519433683078,0.021309989364222726,0.07839539595625523,-0.027379421589410518,0.13535589197030506,0.0773187732096065,0.007952480231310117,0.0034583072773333163,0.015647253105390245,-0.03176751010670579,0.04706157562636194,0.08438478765946447
-0.11938052083641214,-0.31974431896536115,0.08098327729253688,10.019127416666667,-0.04903325,-4.175998458333333,-0.0032089519433683078,0.021309989364222726,0.07839539595625523,-0.027379421589410518,0.13535589197030506,0.0773187732096065,0.005925747884460649,0.0010484474062351975,0.011981907650519628,-0.0032790645013604882,0.047821033985673195,0.01888982353363767
-0.13124875974997358,-0.3218387140677544,0.057246799465414,10.019127416666667,-0.13892754166666665,-4.233203916666667,-0.0032089519433683078,0.021309989364222726,0.07839539595625523,-0.027379421589410518,0.13535589197030506,0.0773187732096065,0.00227808244756524,-0.001596613103927424,0.011473322743351501,-0.023849379069176797,0.08943009104484144,0.03104229200700773
-0.13543754995475996,-0.31904618726456346,0.03490658503988659,10.059988458333333,-0.3105439166666667,-4.314926,-0.0032089519433683078,0.021309989364222726,0.07839539595625523,-0.027379421589410518,0.13535589197030506,0.0773187732096065,0.00036295506872051033,0.002174632546220265,0.007048602746600184,-0.044240350281107434,0.07772849307485341,0.01871047940556217
-0.1361356816555577,-0.3232349774693498,0.020943951023931952,10.141710541666667,-0.45764366666666667,-4.3721314583333335,-0.0032089519433683078,0.021309989364222726,0.07839539595625523,-0.027379421589410518,0.13535589197030506,0.0773187732096065,-0.005538966863167703,-0.000953469833903915,0.0018690741666611973,-0.027730350729325507,0.012376552516563987,-0.022079470535073493
-0.12566370614359174,-0.3218387140677544,0.017453292519943295,10.190743791666666,-0.4739880833333333,-4.347614833333333,-0.0032089519433683078,0.021309989364222726,0.07839539595625523,-0.027379421589410518,0.13535589197030506,0.0773187732096065,-0.007415604404700203,9.232678162508089e-05,-0.0022729311106582982,-0.04000412240561224,-0.016224686254456267,-0.04272587937306551
-0.11030480872604163,-0.3218387140677544,0.02234021442552742,10.264293666666665,-0.43312704166666666,-4.2822371666666665,-0.0032089519433683078,0.021309989364222726,0.07839539595625523,-0.027379421589410518,0.13535589197030506,0.0773187732096065,-0.006216849972446163,0.002393349643536407,-0.010648146719591528,-0.06057134714578815,0.011782470595899364,-0.06317080161813131
-0.09773843811168245,-0.3267256359733385,0.0439822971502571,10.378704583333333,-0.4494714583333333,-4.175998458333333,-0.0032089519433683078,0.021309989364222726,0.07839539595625523,-0.027379421589410518,0.13535589197030506,0.0773187732096065,-0.008969606562815546,0.0028752828171295206,-0.010551847872908617,-0.11770153599577589,-0.017576720609008525,-0.026717155371032576
-0.07958701389094143,-0.3323106895797203,0.06492624817418906,10.607526416666667,-0.40861041666666664,-4.143309625,-0.0032089519433683078,0.021309989364222726,0.07839539595625523,-0.027379421589410518,0.13535589197030506,0.0773187732096065,-0.008976562256116982,-0.000828333801624458,-0.00862305126886844,-0.0604536317513896,0.0022663870003598366,-0.035055515473237917
-0.0614355896702004,-0.3309144261781249,0.08237954069413235,10.721937333333331,-0.40861041666666664,-4.094276375,-0.0032089519433683078,0.021309989364222726,0.07839539595625523,-0.027379421589410518,0.13535589197030506,0.0773187732096065,-0.011514681308061991,-0.0008161149244996402,-0.008205332739832299,-0.12604395558631953,0.0055203601885039375,0.0016409458635695774
-0.03839724354387525,-0.3295181627765294,0.0991347015132779,10.967103583333333,-0.416782625,-4.118792999999999,-0.0032089519433683078,0.021309989364222726,0.07839539595625523,-0.027379421589410518,0.13535589197030506,0.0773187732096065,-0.009765182310582472,-0.0037568766609173544,-0.0033408414519391643,-0.08500664695060745,-0.027615159689882714,0.005825328793923749
-0.019547687622336492,-0.3218387140677544,0.10611601852125524,11.13054775,-0.35957716666666667,-4.151481833333333,-0.0032089519433683078,0.021309989364222726,0.07839539595625523,-0.027379421589410518,0.13535589197030506,0.0773187732096065,-0.006229895682702155,-0.0014607312256384763,-0.0005380224845341596,-0.007310321751237739,-0.05648560988029744,-0.022713741560302
-0.006283185307179587,-0.31904618726456346,0.1075122819228507,11.138719958333333,-0.24516625,-4.126965208333333,-0.0032089519433683078,0.021309989364222726,0.07839539595625523,-0.027379421589410518,0.13535589197030506,0.0773187732096065,-0.006278775113864388,-0.0032404309796925,0.0017795070101528443,0.02543640668232658,-0.056659415269653145,0.034781088956392626
0.006283185307179587,-0.3127630019573839,0.10402162341886204,11.081514499999999,-0.13075533333333333,-4.2168595,-0.0032089519433683078,0.021309989364222726,0.07839539595625523,-0.027379421589410518,0.13535589197030506,0.0773187732096065,-0.0006026753372226002,0.0034886086358197764,0.008204636213841671,0.004682236760717667,-0.03204473190068475,0.04692753998523834
0.00767944870877505,-0.31974431896536115,0.0879645943005142,11.065170083333333,-0.06537766666666667,-4.3312704166666665,-0.0032089519433683078,0.021309989364222726,0.07839539595625523,-0.027379421589410518,0.13535589197030506,0.0773187732096065,-0.0022029422011408902,-6.087425288204543e-06,0.0057290058111191455,0.06203790358201387,-0.05191966142742885,0.022473419191808154
0.011868238913561441,-0.31974431896536115,0.07609635538695278,10.934414749999998,0.04086104166666667,-4.396648083333333,-0.0032089519433683078,0.021309989364222726,0.07839539595625523,-0.027379421589410518,0.13535589197030506,0.0773187732096065,0.0032670925148263474,0.000291211441740989,0.0059894215200028975,0.020962842313900255,0.058429546349675,0.059456478955234336
0.005585053606381855,-0.3204424506661589,0.06492624817418906,10.885381500000001,-0.07354987499999999,-4.535575625,-0.0032089519433683078,0.021309989364222726,0.07839539595625523,-0.027379421589410518,0.13535589197030506,0.0773187732096065,0.0035798168231345497,-0.0007420303919220973,0.008222820433815265,0.7430074808926248,-0.29596615370141394,0.3981505669568781
0.0006981317007977319,-0.3246312408709453,0.05305800926062762,10.885381500000001,-0.196133,-4.649986541666666,-0.0032089519433683078,0.021309989364222726,0.07839539595625523,-0.027379421589410518,0.13535589197030506,0.0773187732096065,-0.000582470024165427,0.002304545842527213,0.007978686522750661,0.03281726911058118,-0.0019446127387298948,0.04268708170712504
0.0013962634015954637,-0.3295181627765294,0.03700098014227979,10.811831625,-0.18796079166666665,-4.75622525,-0.0032089519433683078,0.021309989364222726,0.07839539595625523,-0.027379421589410518,0.13535589197030506,0.0773187732096065,-0.00011792928158564005,-0.0013142626925107706,0.00452358708704173,0.00046163104975500675,0.04756865924387539,0.0017731351495188657
0.0020943951023931952,-0.3267256359733385,0.028623399732707,10.803659416666665,-0.2778550833333333,-4.7807418749999995,-0.0032089519433683078,0.021309989364222726,0.07839539595625523,-0.027379421589410518,0.13535589197030506,0.0773187732096065,-0.0027122780831184082,0.00040039506763963115,0.006017156913810095,-0.06527322206773128,0.06411578849022138,0.04275484078420172
0.006981317007977318,-0.3274237676741362,0.016755160819145562,10.926242541666667,-0.4004382083333333,-4.886980583333333,-0.0032089519433683078,0.021309989364222726,0.07839539595625523,-0.027379421589410518,0.13535589197030506,0.0773187732096065,-0.0032444946055480645,-0.003676584653053656,0.0028568036140739963,-0.052873165361027916,0.02329997487567643,0.022176839492419293
0.013962634015954637,-0.3204424506661589,0.01117010721276371,11.024309041666667,-0.44129925,-4.95235825,-0.0032089519433683078,0.021309989364222726,0.07839539595625523,-0.027379421589410518,0.13535589197030506,0.0773187732096065,-0.0040652955212328095,-0.0030885311109661996,0.0014668784399298107,-0.052629023366521345,0.03168035079718297,-0.022701899507249646
0.02234021442552742,-0.3141592653589793,0.009075712110370514,11.122375541666667,-0.4985047083333333,-4.927841624999999,-0.0032089519433683078,0.021309989364222726,0.07839539595625523,-0.027379421589410518,0.13535589197030506,0.0773187732096065,-0.00346386917438408,-0.005623578417906946,-0.0033002558999577613,-0.08141054632462078,0.051940013448641804,0.030800883334655412
0.029321531433504733,-0.3029891581462156,0.0153588974175501,11.277647499999999,-0.5965712083333333,-5.009563708333333,-0.0032089519433683078,0.021309989364222726,0.07839539595625523,-0.027379421589410518,0.13535589197030506,0.0773187732096065,-0.004486563688257073,-0.0008652565417274297,-0.00596787340291928,-0.056582699988389266,-0.03014322988805615,-0.018309948423818244
0.03839724354387525,-0.30159289474462014,0.02722713633111154,11.383886208333333,-0.5311935416666667,-4.993219291666667,-0.0032089519433683078,0.021309989364222726,0.07839539595625523,-0.027379421589410518,0.13535589197030506,0.0773187732096065,-0.00408669925644724,-0.0019433721465256066,-0.009811293935447827,-0.01997648010405135,0.01005728590152163,-0.030283854939804608
0.04677482395344803,-0.29740410453983374,0.047472955654245766,11.416575041666665,-0.5475379583333333,-4.95235825,-0.0032089519433683078,0.021309989364222726,0.07839539595625523,-0.027379421589410518,0.13535589197030506,0.0773187732096065,-0.00707629839053456,-0.006358573016764709,-0.012615656491844334,-0.06478343023293276,-0.019274434456201934,-0.030377019112622274
0.06073745796940267,-0.2848377339254746,0.07330382858376185,11.539158166666667,-0.5066769166666666,-4.9114972083333335,-0.0032089519433683078,0.021309989364222726,0.07839539595625523,-0.027379421589410518,0.13535589197030506,0.0773187732096065,-0.0045537652190785075,-0.002172199845475334,-0.015663248883677226,-0.06871634169007196,-0.06105396118131963,-0.03813647225383665
0.06981317007977318,-0.28064894372068816,0.10471975511965977,11.669913499999998,-0.3840937916666667,-4.85429175,-0.0032089519433683078,0.021309989364222726,0.07839539595625523,-0.027379421589410518,0.13535589197030506,0.0773187732096065,-0.0005921063691688176,-0.004563320203550294,-0.012401609342742925,0.2886758494538849,-0.20123528804319063,0.4164976405123146
0.07260569688296412,-0.2743657584135086,0.1319468914507713,11.776152208333334,-0.318716125,-4.837947333333333,-0.0032089519433683078,0.021309989364222726,0.07839539595625523,-0.027379421589410518,0.13535589197030506,0.0773187732096065,-0.004734415563205273,-0.007848887830963918,-0.004536787233840122,-0.01966914519160811,-0.025735015342322084,0.0070845238573541735
0.08168140899333462,-0.2590068609959585,0.14102260356114182,11.808841041666666,-0.269682875,-4.870636166666666,-0.0032089519433683078,0.021309989364222726,0.07839539595625523,-0.027379421589410518,0.13535589197030506,0.0773187732096065,-0.002990923452208047,-0.007826222853871825,-0.002064543311064558,0.005163010053271526,-0.06292106444656488,0.031871243477086274
0.0879645943005142,-0.2436479635784084,0.14590952546672595,11.792496624999998,-0.14709974999999997,-4.95235825,-0.0032089519433683078,0.021309989364222726,0.07839539595625523,-0.027379421589410518,0.13535589197030506,0.0773187732096065,0.0011361030926613947,-0.004634814644558882,0.0024918597809777464,0.0135325740229418,-0.0671685747605009,-0.0207842638246177
0.08517206749732328,-0.23457225146803787,0.14102260356114182,11.759807791666667,-0.016344416666666667,-4.927841624999999,-0.0032089519433683078,0.021309989364222726,0.07839539595625523,-0.027379421589410518,0.13535589197030506,0.0773187732096065,0.00033440581643322075,-0.0035664531198276576,0.008647204594069495,0.04222975993010383,-0.03810630369835971,-0.0001499520171147123
0.08517206749732328,-0.22689280275926282,0.12356931104119852,11.669913499999998,0.057205458333333334,-4.944186041666666,-0.0032089519433683078,0.021309989364222726,0.07839539595625523,-0.027379421589410518,0.13535589197030506,0.0773187732096065,0.004761348421564476,0.001087892925089857,0.011164145339372272,0.009530805597262266,0.0034378862684529216,-0.004091490087000127
0.07539822368615504,-0.22968532956245377,0.10192722831646883,11.645396875,0.04903325,-4.95235825,-0.0032089519433683078,0.021309989364222726,0.07839539595625523,-0.027379421589410518,0.13535589197030506,0.0773187732096065,0.0017378315886245718,0.0018254938361993776,0.010199186846280572,0.017558426167355336,-0.003936809846431692,-0.008269978381581805
0.07190756518216637,-0.2331759880664424,0.08168140899333462,11.604535833333333,0.057205458333333334,-4.95235825,-0.0032089519433683078,0.021309989364222726,0.07839539595625523,-0.027379421589410518,0.13535589197030506,0.0773187732096065,0.0032334634863195474,0.0007848053128089611,0.009321383670949507,-0.05183462101662706,0.025198996833300416,-0.008264078074559447
0.06562437987498679,-0.23527038316883564,0.06283185307179587,11.702602333333333,0.008172208333333333,-4.95235825,-0.0032089519433683078,0.021309989364222726,0.07839539595625523,-0.027379421589410518,0.13535589197030506,0.0773187732096065,0.0020287006839209407,0.0012696487726693245,0.01044557925027274,-0.08860141479131582,0.025685195115728535,0.0361699284979264
0.06213372137099814,-0.23736477827122882,0.04258603374866164,11.874218708333334,-0.04086104166666667,-5.042252541666667,-0.0032089519433683078,0.021309989364222726,0.07839539595625523,-0.027379421589410518,0.13535589197030506,0.0773187732096065,-0.0008396056855683914,-0.0036304564499917043,0.0019240753350578226,-0.07653728970770673,0.009896895704101414,0.0038458621414776814
0.0635299847725936,-0.2303834612632515,0.03839724354387525,12.021318458333333,-0.057205458333333334,-5.066769166666667,-0.0032089519433683078,0.021309989364222726,0.07839539595625523,-0.027379421589410518,0.13535589197030506,0.0773187732096065,0.002156179717513815,-0.006683090473912372,0.0052017102669682696,0.18906746273789335,-0.10959670604616414,0.49243171490418647
0.06073745796940267,-0.2192133540504878,0.031415926535897934,12.119384958333333,-0.122583125,-5.066769166666667,-0.0032089519433683078,0.021309989364222726,0.07839539595625523,-0.027379421589410518,0.13535589197030506,0.0773187732096065,-0.0016793778169554125,-0.006441941459900735,-0.0035298993743550014,-0.018801369584343555,0.01831353299363043,-0.044945360691975716
0.06422811647339133,-0.20664698343612864,0.03839724354387525,12.152073791666666,-0.15527195833333335,-4.993219291666667,-0.0032089519433683078,0.021309989364222726,0.07839539595625523,-0.027379421589410518,0.13535589197030506,0.0773187732096065,-0.0029322277348573225,-0.007381360308162464,-0.0038528756836339077,-0.01464306645368801,-0.018767901260693498,0.0006870573688887291
0.06981317007977318,-0.19198621771937624,0.04677482395344803,12.176590416666667,-0.11441091666666667,-5.009563708333333,-0.0032089519433683078,0.021309989364222726,0.07839539595625523,-0.027379421589410518,0.13535589197030506,0.0773187732096065,0.0019313988562434093,-0.003170166946917811,-0.004930435287450463,0.01406075497842203,-0.06417327362194143,0.008937334480752313
0.06632251157578452,-0.18570303241219666,0.056548667764616284,12.143901583333331,0.016344416666666667,-5.042252541666667,-0.0032089519433683078,0.021309989364222726,0.07839539595625523,-0.027379421589410518,0.13535589197030506,0.0773187732096065,0.0008347107328763141,-0.0066573213540509785,-0.004219078351976064,0.018381785858562864,0.017308795865461604,-0.04361790002440241
0.06422811647339133,-0.17243853009703977,0.06492624817418906,12.103040541666665,-0.016344416666666667,-4.968702666666667,-0.0032089519433683078,0.021309989364222726,0.07839539595625523,-0.027379421589410518,0.13535589197030506,0.0773187732096065,0.004385394480023372,-0.0032232987863886737,-0.000699868772880908,-0.03875859873057093,-0.0029692638382686023,0.017719007132324494
0.05585053606381855,-0.16615534478986016,0.06702064327658225,12.176590416666667,-0.008172208333333333,-5.017735916666667,-0.0032089519433683078,0.021309989364222726,0.07839539595625523,-0.027379421589410518,0.13535589197030506,0.0773187732096065,0.0032258490431892844,-0.0028622917806563897,-0.0027328524182568385,0.00223112772018233,-0.019620947966734914,0.001689679590993489
0.04956735075663895,-0.1605702911834783,0.07260569688296412,12.168418208333332,0.032688833333333334,-5.034080333333333,-0.0032089519433683078,0.021309989364222726,0.07839539595625523,-0.027379421589410518,0.13535589197030506,0.0773187732096065,0.0011840019263741975,-0.006430190681565478,-0.0027213733535512937,-0.009930633127135217,0.05396634164131347,-0.02252550063683082
0.047472955654245766,-0.14730578886832138,0.07819075048934597,12.184762625,-0.07354987499999999,-5.0013914999999995,-0.0032089519433683078,0.021309989364222726,0.07839539595625523,-0.027379421589410518,0.13535589197030506,0.0773187732096065,0.0031942505886028314,-0.0037632968274148603,1.7671104959568357e-05,-0.03857616868267584,-0.015646308006531332,0.0022549397068041097
0.041189770347066175,-0.14032447186034408,0.07819075048934597,12.258312499999999,-0.04086104166666667,-5.017735916666667,-0.0032089519433683078,0.021309989364222726,0.07839539595625523,-0.027379421589410518,0.13535589197030506,0.0773187732096065,0.0017737999402560904,-0.00520980285400576,0.0027092578689364684,-0.026013022059622717,-0.05609514085977511,0.006446178754612826
0.03700098014227979,-0.12985249634837812,0.07330382858376185,12.307345749999998,0.07354987499999999,-5.042252541666667,-0.0032089519433683078,0.021309989364222726,0.07839539595625523,-0.027379421589410518,0.13535589197030506,0.0773187732096065,0.003001667120545361,-0.004742221499209145,0.0038748919303999217,0.1413854444585013,-0.10180356256055158,0.5273110654072293
0.032812189937493394,-0.1228711793404008,0.06841690667817772,12.315517958333333,-0.008172208333333333,-5.0504247499999995,-0.0032089519433683078,0.021309989364222726,0.07839539595625523,-0.027379421589410518,0.13535589197030506,0.0773187732096065,0.0026360559604566235,-0.005053191968748919,0.002752472929474111,-0.07070219414479832,0.017617065100105737,0.0438063000891938
0.02722713633111154,-0.11239920382843484,0.06283185307179587,12.4544455,-0.04086104166666667,-5.14849125,-0.0032089519433683078,0.021309989364222726,0.07839539595625523,-0.027379421589410518,0.13535589197030506,0.0773187732096065,0.003523322917060253,-0.002915644308888765,0.0027282220445086127,-0.0013212298949308687,0.013870972667471223,0.015457031192236001
0.02024581932313422,-0.10681415022205297,0.057246799465414,12.4544455,-0.06537766666666667,-5.189352291666666,-0.0032089519433683078,0.021309989364222726,0.07839539595625523,-0.027379421589410518,0.13535589197030506,0.0773187732096065,-0.002044536918866197,-0.005782798892172339,-0.002343149686679494,0.023283803907710135,0.050654581799114355,-0.008695923488880939
0.024434609527920613,-0.09494591130849153,0.06213372137099814,12.405412249999998,-0.16344416666666667,-5.181180083333333,-0.0032089519433683078,0.021309989364222726,0.07839539595625523,-0.027379421589410518,0.13535589197030506,0.0773187732096065,-0.0014956609084747243,-0.005504692423126675,-0.0005197482926711203,-0.029510051185762866,0.0218835282689951,0.01604201360111332
0.027925268031909273,-0.08447393579652555,0.0635299847725936,12.462617708333331,-0.20430520833333332,-5.222041125,-0.0032089519433683078,0.021309989364222726,0.07839539595625523,-0.027379421589410518,0.13535589197030506,0.0773187732096065,-0.004940608409665359,-0.004001597548010469,-5.631150811241469e-05,-0.05011570298937206,0.04643519166360177,0.0735046110419898
0.03769911184307752,-0.0767944870877505,0.06422811647339133,12.560684208333331,-0.29419949999999995,-5.377313083333333,-0.0032089519433683078,0.021309989364222726,0.07839539595625523,-0.027379421589410518,0.13535589197030506,0.0773187732096065,-0.005216096964952305,-0.003846524849412352,-0.003195742591500878,0.03184564970421777,0.01738357301067075,0.024881699585636456
0.04817108735504349,-0.06841690667817772,0.07051130178057091,12.495306541666666,-0.32688833333333334,-5.434518541666667,-0.0032089519433683078,0.021309989364222726,0.07839539595625523,-0.027379421589410518,0.13535589197030506,0.0773187732096065,-0.005946150099247037,-0.00930978290345087,-0.0016191722410699636,-0.017006361050989315,0.0292673279330347,0.033458605282699255
0.060039326268604934,-0.05026548245743669,0.07400196028455958,12.527995375,-0.3840937916666667,-5.508068416666666,-0.0032089519433683078,0.021309989364222726,0.07839539595625523,-0.027379421589410518,0.13535589197030506,0.0773187732096065,-0.0009043078508844257,-0.004734786919188888,9.479251139085675e-05,0.032276462995676304,-0.01565985315487439,0.029597412828351044
0.06213372137099814,-0.04049163864626844,0.0747000919853573,12.462617708333331,-0.35140495833333335,-5.573446083333333,-0.0032089519433683078,0.021309989364222726,0.07839539595625523,-0.027379421589410518,0.13535589197030506,0.0773187732096065,0.0002924145598685693,-0.0029940856748696975,0.0021657792970090502,0.07319869843726838,-0.02808321681537694,-0.018880149713737297
0.0614355896702004,-0.03490658503988659,0.06981317007977318,12.315517958333333,-0.29419949999999995,-5.5407572499999995,-0.0032089519433683078,0.021309989364222726,0.07839539595625523,-0.027379421589410518,0.13535589197030506,0.0773187732096065,-0.00017281031348399364,-0.005192418592733844,0.0005610362588759699,0.024008497319009232,-0.011475320290272198,0.026188770482619358
0.06213372137099814,-0.024434609527920613,0.06911503837897544,12.266484708333332,-0.269682875,-5.597962708333332,-0.0032089519433683078,0.021309989364222726,0.07839539595625523,-0.027379421589410518,0.13535589197030506,0.0773187732096065,0.0013429079914010688,-0.00495020261207336,-0.0021824554085285836,0.028659222754187287,0.00902357237931257,-0.002077284071677418
0.059341194567807204,-0.0153588974175501,0.07330382858376185,12.20927925,-0.2860272916666666,-5.597962708333332,-0.0032089519433683078,0.021309989364222726,0.07839539595625523,-0.027379421589410518,0.13535589197030506,0.0773187732096065,0.002007713357761826,-0.004275754633870901,-0.0029525019645295896,0.008187477444683712,-0.023961014816955353,0.030808913637181034
0.05515240436302082,-0.006283185307179587,0.07958701389094143,12.192934833333334,-0.23699404166666665,-5.663340375,-0.0032089519433683078,0.021309989364222726,0.07839539595625523,-0.027379421589410518,0.13535589197030506,0.0773187732096065,0.0015975386784169742,-0.005152576310423153,-0.0034321236167047455,0.03690574548355729,0.01670441156776046,-0.030038248373631015
0.05235987755982988,0.003490658503988659,0.08726646259971647,12.119384958333333,-0.269682875,-5.606134916666666,-0.0032089519433683078,0.021309989364222726,0.07839539595625523,-0.027379421589410518,0.13535589197030506,0.0773187732096065,-0.0009266023826693648,-0.013258156334116068,-0.0046316538597881455,0.028824985945160784,0.01242221496320702,-0.025554521600691476
0.05375614096142535,0.030019663134302467,0.09634217471008698,12.0621795,-0.29419949999999995,-5.557101666666666,-0.0032089519433683078,0.021309989364222726,0.07839539595625523,-0.027379421589410518,0.13535589197030506,0.0773187732096065,0.0038404234502925705,-0.0074791012086120896,-0.007142432857667855,0.03327005238618293,-0.036895983364518714,-0.004448762735229504
0.04677482395344803,0.04537856055185257,0.11100294042683936,11.996801833333333,-0.220649625,-5.548929458333332,-0.0032089519433683078,0.021309989364222726,0.07839539595625523,-0.027379421589410518,0.13535589197030506,0.0773187732096065,-0.0001286032771046196,-0.010336178429796523,-0.0035147686305116166,0.06630616001499412,-0.00034037410920826884,-0.04478829836056045
0.04677482395344803,0.06562437987498679,0.11798425743481668,11.8660465,-0.220649625,-5.459035166666666,-0.0032089519433683078,0.021309989364222726,0.07839539595625523,-0.027379421589410518,0.13535589197030506,0.0773187732096065,0.0024095596734693236,-0.0072626402715236255,-0.0019584118126753647,0.029676114484699995,0.019930033558954424,-0.011593165759686785
0.041887902047863905,0.08028514559173915,0.12217304763960307,11.808841041666666,-0.26151066666666667,-5.434518541666667,-0.0032089519433683078,0.021309989364222726,0.07839539595625523,-0.027379421589410518,0.13535589197030506,0.0773187732096065,0.0024685538466084323,-0.006898208729607298,0.001497290420635014,0.029913656117074097,-0.012595749377800376,-0.002977245347299718
0.03700098014227979,0.09354964790689606,0.11938052083641214,11.751635583333332,-0.23699404166666665,-5.426346333333333,-0.0032089519433683078,0.021309989364222726,0.07839539595625523,-0.027379421589410518,0.13535589197030506,0.0773187732096065,-0.0014795931038304993,-0.004025399858040456,0.0025025564888248118,0.046392676695242704,0.04052205336110247,-0.023117341909304312
0.04049163864626844,0.10192722831646883,0.114493598930828,11.661741291666667,-0.318716125,-5.377313083333333,-0.0032089519433683078,0.021309989364222726,0.07839539595625523,-0.027379421589410518,0.13535589197030506,0.0773187732096065,0.0012799196873197383,-0.011824294087528355,0.005225483521791168,0.005790637936805199,0.03261757373322681,0.042699373542818796
0.03769911184307752,0.124965574442794,0.10471975511965977,11.653569083333332,-0.3840937916666667,-5.459035166666666,-0.0032089519433683078,0.021309989364222726,0.07839539595625523,-0.027379421589410518,0.13535589197030506,0.0773187732096065,0.00017900134966214158,-0.004499128103658912,0.0010600254077181514,0.04661747409284913,-0.024544063493960103,-0.022094403374941157
0.03769911184307752,0.1340412865531645,0.10262536001726656,11.563674791666667,-0.3350605416666666,-5.410001916666666,-0.0032089519433683078,0.021309989364222726,0.07839539595625523,-0.027379421589410518,0.13535589197030506,0.0773187732096065,-0.0012224122892225365,-0.009134703736714685,0.0015593769210720202,0.07588999377023947,-0.016069520723737026,-0.04248489227558321
0.039793506945470715,0.15289084247470325,0.09983283321407566,11.416575041666665,-0.3023717083333333,-5.3201076249999995,-0.0032089519433683078,0.021309989364222726,0.07839539595625523,-0.027379421589410518,0.13535589197030506,0.0773187732096065,0.0005436365725541074,-0.010111290299934904,-0.0005927274270655948,0.03075544665695522,-0.0038961349352290542,-0.017239220042160282
0.039095375244672985,0.17243853009703977,0.10122909661567112,11.359369583333333,-0.29419949999999995,-5.279246583333333,-0.0032089519433683078,0.021309989364222726,0.07839539595625523,-0.027379421589410518,0.13535589197030506,0.0773187732096065,-0.00011016346935723377,-0.006097294815926956,0.0006508283583277577,0.08018373980568368,0.008322236990806382,-0.02494753684670027
0.039095375244672985,0.1850049007113989,0.09983283321407566,11.204097625,-0.3105439166666667,-5.222041125,-0.0032089519433683078,0.021309989364222726,0.07839539595625523,-0.027379421589410518,0.13535589197030506,0.0773187732096065,-0.0023408634892541497,-0.010598796736942667,-6.742788563159965e-05,0.047698885764829335,-0.02026184975613234,-0.03287603776530983
0.0439822971502571,0.2059488517353309,0.09983283321407566,11.114203333333332,-0.269682875,-5.14849125,-0.0032089519433683078,0.021309989364222726,0.07839539595625523,-0.027379421589410518,0.13535589197030506,0.0773187732096065,0.002090884007067632,-0.010912092338711467,0.003318936666567061,0.08859632672202133,-0.016013275200989514,-0.02810290170383098
0.039793506945470715,0.22759093446006054,0.0942477796076938,10.942586958333331,-0.23699404166666665,-5.083113583333333,-0.0032089519433683078,0.021309989364222726,0.07839539595625523,-0.027379421589410518,0.13535589197030506,0.0773187732096065,0.0005358385149568158,-0.008717987837817548,0.0021967273693308366,0.05224893782927118,-0.040405270099010716,0.004942783269738485
0.039095375244672985,0.24504422698000386,0.08936085770210968,10.844520458333331,-0.15527195833333335,-5.083113583333333,-0.0032089519433683078,0.021309989364222726,0.07839539595625523,-0.027379421589410518,0.13535589197030506,0.0773187732096065,0.0011842899873739485,-0.005332578005116552,-0.0013972463020891501,0.0811413553193288,-0.06898964663771748,-0.027354174624832025
0.03630284844148206,0.2555162024919699,0.09285151620609833,10.6892485,-0.016344416666666667,-5.017735916666667,-0.0032089519433683078,0.021309989364222726,0.07839539595625523,-0.027379421589410518,0.13535589197030506,0.0773187732096065,0.00413886574423128,-0.008854397358332088,0.002459737180957366,0.07285217197743936,-0.0196876823532798,-0.031182037004811126
0.028623399732707,0.27296949501191314,0.0879645943005142,10.550320958333334,0.024516625,-4.944186041666666,-0.0032089519433683078,0.021309989364222726,0.07839539595625523,-0.027379421589410518,0.13535589197030506,0.0773187732096065,0.005025729120862122,-0.006197498915812852,0.0009618591187175797,0.015960380961139053,-0.036009007451612646,-0.014592829952426294
0.01815142422074103,0.28553586562627226,0.08656833089891874,10.525804333333332,0.0980665,-4.903325,-0.0032089519433683078,0.021309989364222726,0.07839539595625523,-0.027379421589410518,0.13535589197030506,0.0773187732096065,0.004990477578128473,-0.004187892123292246,0.0027404610626250597,0.0199523170885138,-0.035730139500965825,-0.026518304371160012
0.008377580409572781,0.29391344603584507,0.08098327729253688,10.4931155,0.17161637500000002,-4.837947333333333,-0.0032089519433683078,0.021309989364222726,0.07839539595625523,-0.027379421589410518,0.13535589197030506,0.0773187732096065,0.004971160451897186,-0.005542479654815611,0.006211204012955943,0.04471068432799235,0.025985350561637845,-0.014070195898067154
-0.0013962634015954637,0.3043854215478111,0.06841690667817772,10.411393416666668,0.122583125,-4.797086291666667,-0.0032089519433683078,0.021309989364222726,0.07839539595625523,-0.027379421589410518,0.13535589197030506,0.0773187732096065,0.004214519979231972,-0.0042657412755864365,0.0047358554247316316,-0.00020382541769909274,0.02628989777989704,-0.01794200373205703
-0.009773843811168246,0.3134611336581816,0.060039326268604934,10.419565624999999,0.07354987499999999,-4.748053041666666,-0.0032089519433683078,0.021309989364222726,0.07839539595625523,-0.027379421589410518,0.13535589197030506,0.0773187732096065,0.0030849299356064865,-0.0031976928199354106,0.0030451051416065153,0.020281378315672154,0.010089179893055763,-0.046261447122474986
-0.016057029118347832,0.31904618726456346,0.05375614096142535,10.386876791666666,0.057205458333333334,-4.641814333333333,-0.0032089519433683078,0.021309989364222726,0.07839539595625523,-0.027379421589410518,0.13535589197030506,0.0773187732096065,0.001988868158782608,-0.003828196499983467,-0.0010715707965482828,0.03648172113880444,0.01447012483004637,-0.050217516713563365
-0.019547687622336492,0.3274237676741362,0.05585053606381855,10.321499124999999,0.032688833333333334,-4.527403416666666,-0.0032089519433683078,0.021309989364222726,0.07839539595625523,-0.027379421589410518,0.13535589197030506,0.0773187732096065,0.0003968410188619615,-0.001706617584795455,-0.0037549481804109294,0.03660459219822598,0.07566791151659287,-0.04614052023705741
-0.02024581932313422,0.3302162944773272,0.06422811647339133,10.256121458333332,-0.11441091666666667,-4.4211647083333325,-0.0032089519433683078,0.021309989364222726,0.07839539595625523,-0.027379421589410518,0.13535589197030506,0.0773187732096065,-0.004238824802311074,-0.0023734563706629265,-0.007512286407564855,-0.004255141927685932,0.034279078623707784,-0.025482213515814433
-0.011868238913561441,0.33510321638291124,0.07888888219014369,10.272465875,-0.17978858333333333,-4.355787041666666,-0.0032089519433683078,0.021309989364222726,0.07839539595625523,-0.027379421589410518,0.13535589197030506,0.0773187732096065,-0.004495965499624049,-0.0009235722536988322,-0.010435051704044856,0.08539718502091902,0.0052228547616220726,-0.0665209919037505
-0.0027925268031909274,0.33719761148530447,0.09983283321407566,10.109021708333332,-0.18796079166666665,-4.208687291666666,-0.0032089519433683078,0.021309989364222726,0.07839539595625523,-0.027379421589410518,0.13535589197030506,0.0773187732096065,-0.0034432429692186624,0.0005677841175121026,-0.009371836130483932,0.03229692693912108,0.0005209813704260083,-0.045927786239122026
0.0041887902047863905,0.335801348083709,0.11938052083641214,10.051816249999998,-0.18796079166666665,-4.1024485833333335,-0.0032089519433683078,0.021309989364222726,0.07839539595625523,-0.027379421589410518,0.13535589197030506,0.0773187732096065,-0.002288566883436732,0.001711612575726007,-0.004002068496364882,-0.0004241141800891306,-0.020143570278007356,0.00701297170231724
0.009075712110370514,0.3323106895797203,0.1270599695451872,10.059988458333333,-0.14709974999999997,-4.1024485833333335,-0.0032089519433683078,0.021309989364222726,0.07839539595625523,-0.027379421589410518,0.13535589197030506,0.0773187732096065,-0.0002952249449768763,0.0014223377125041287,0.00014863535111765892,0.0035873970577184385,-0.036820995068844606,-0.013386938449714022
0.009773843811168246,0.3288200310757317,0.1270599695451872,10.059988458333333,-0.07354987499999999,-4.0615875416666665,-0.0032089519433683078,0.021309989364222726,0.07839539595625523,-0.027379421589410518,0.13535589197030506,0.0773187732096065,0.0025021988829569746,-0.0030465619679690445,0.007145637088963781,-0.020966439696447195,-0.01621671339246944,0.010937141306936288
0.004886921905584123,0.33510321638291124,0.11309733552923257,10.109021708333332,-0.04086104166666667,-4.069759749999999,-0.0032089519433683078,0.021309989364222726,0.07839539595625523,-0.027379421589410518,0.13535589197030506,0.0773187732096065,0.0020663088331101575,-0.000354252594845377,0.005411850632502052,-0.02074036652082029,-0.048441119133274764,0.03992491218873494
0.0006981317007977319,0.335801348083709,0.10262536001726656,10.158054958333333,0.057205458333333334,-4.135137416666667,-0.0032089519433683078,0.021309989364222726,0.07839539595625523,-0.027379421589410518,0.13535589197030506,0.0773187732096065,0.005868053873191931,0.0012478058096591982,0.008993753314199888,0.03223105943455324,-0.04793615766144138,0.007037088363438499
-0.01117010721276371,0.33300882128051806,0.08517206749732328,10.100849499999999,0.15527195833333335,-4.135137416666667,-0.0032089519433683078,0.021309989364222726,0.07839539595625523,-0.027379421589410518,0.13535589197030506,0.0773187732096065,0.0028343199056843123,0.003508627408828605,0.010821183376129626,0.052625426512776366,-0.07200698380123702,0.006921113069682157
-0.016755160819145562,0.32602750427254074,0.0635299847725936,10.002782999999999,0.3023717083333333,-4.135137416666667,-0.0032089519433683078,0.021309989364222726,0.07839539595625523,-0.027379421589410518,0.13535589197030506,0.0773187732096065,0.004277869481910739,0.003997682047531093,0.011075384694821253,0.02411706259634706,0.04696601030157609,0.02297973224807218
-0.025132741228718346,0.3183480555637657,0.041189770347066175,9.961921958333333,0.21247741666666667,-4.16782625,-0.0032089519433683078,0.021309989364222726,0.07839539595625523,-0.027379421589410518,0.13535589197030506,0.0773187732096065,0.007597001281828338,0.004492490534144272,0.00889752615411915,-0.00474618338594481,-0.005205220041699302,0.02695135157804359
-0.04049163864626844,0.30857421175259747,0.023736477827122883,9.978266375,0.22882183333333334,-4.208687291666666,-0.0032089519433683078,0.021309989364222726,0.07839539595625523,-0.027379421589410518,0.13535589197030506,0.0773187732096065,0.006221060388631997,0.004622674609751891,0.007921381860164214,0.027837921113880747,-0.013047241244622617,-0.01009925569780192
-0.05305800926062762,0.29949849964222697,0.008377580409572781,9.929233125,0.26151066666666667,-4.175998458333333,-0.0032089519433683078,0.021309989364222726,0.07839539595625523,-0.027379421589410518,0.13535589197030506,0.0773187732096065,0.003390128321409195,0.0051337048133983185,0.006371949454461913,0.019552063279460127,0.04874241916311644,-0.010371082027165992
-0.059341194567807204,0.289026524130261,-0.0041887902047863905,9.896544291666666,0.17161637500000002,-4.143309625,-0.0032089519433683078,0.021309989364222726,0.07839539595625523,-0.027379421589410518,0.13535589197030506,0.0773187732096065,0.002801844289573334,0.003852171193265176,0.007165099085933793,0.015497685115663323,-0.02040546591453125,-0.010645301130210554
-0.06492624817418906,0.2813470754214859,-0.01884955592153876,9.872027666666666,0.220649625,-4.110620791666666,-0.0032089519433683078,0.021309989364222726,0.07839539595625523,-0.027379421589410518,0.13535589197030506,0.0773187732096065,0.001979089779551493,0.004128665066160965,0.0008708443450938401,0.023483028655049802,0.05755462869004663,-0.006862972805269502
