angular_velocity_x,angular_velocity_y,angular_velocity_z,linear_acceleration_x,linear_acceleration_y,linear_acceleration_z,fake_gyro_bias_x,fake_gyro_bias_y,fake_gyro_bias_z,fake_acc_bias_x,fake_acc_bias_y,fake_acc_bias_z,fake_gyro_noise_x,gyro_noise_y,gyro_noise_z,fake_acc_noise_x,fake_acc_noise_y,fake_acc_noise_z
-0.12566370614359174,-0.11030480872604163,0.04049163864626844,10.378704583333333,-0.35957716666666667,-3.4486719166666666,-0.00254791662408616,0.021176338145308345,0.07715271885373332,-0.026003945863295932,0.1427933281283871,0.06884419215233199,0.0,0.0,0.0,0.0,0.0,0.0
-0.143116998663535,-0.09285151620609833,0.02722713633111154,10.468598874999998,-0.3350605416666666,-3.4731885416666666,-0.00254791662408616,0.021176338145308345,0.07715271885373332,-0.026003945863295932,0.1427933281283871,0.06884419215233199,0.0,0.0,0.0,0.0,0.0,0.0
-0.15289084247470325,-0.07539822368615504,0.014660765716752367,10.231604833333332,-0.35957716666666667,-3.3996386666666667,-0.00254791662408616,0.021176338145308345,0.07715271885373332,-0.026003945863295932,0.1427933281283871,0.06884419215233199,0.0,0.0,0.0,0.0,0.0,0.0
-0.16824973989225336,-0.05515240436302082,0.0027925268031909274,10.068160666666666,-0.269682875,-3.358777625,-0.00254791662408616,0.021176338145308345,0.07715271885373332,-0.026003945863295932,0.1427933281283871,0.06884419215233199,0.0,0.0,0.0,0.0,0.0,0.0
-0.17872171540421936,-0.04677482395344803,-0.008377580409572781,9.716755708333332,-0.35957716666666667,-3.2035056666666666,-0.00254791662408616,0.021176338145308345,0.07715271885373332,-0.026003945863295932,0.1427933281283871,0.06884419215233199,0.0,0.0,0.0,0.0,0.0,0.0
-0.18919369091618532,-0.032812189937493394,-0.02024581932313422,9.561483749999999,-0.34323275000000003,-3.162644625,-0.00254791662408616,0.021176338145308345,0.07715271885373332,-0.026003945863295932,0.1427933281283871,0.06884419215233199,0.0,0.0,0.0,0.0,0.0,0.0
-0.19338248112097173,-0.023736477827122883,-0.01884955592153876,9.250939833333334,-0.3840937916666667,-3.113611375,-0.00254791662408616,0.021176338145308345,0.07715271885373332,-0.026003945863295932,0.1427933281283871,0.06884419215233199,0.0,0.0,0.0,0.0,0.0,0.0
-0.19408061282176942,-0.02024581932313422,-0.013264502315156905,9.234595416666666,-0.34323275000000003,-3.1544724166666662,-0.00254791662408616,0.021176338145308345,0.07715271885373332,-0.026003945863295932,0.1427933281283871,0.06884419215233199,0.0,0.0,0.0,0.0,0.0,0.0
-0.18989182261698306,-0.00767944870877505,-0.0041887902047863905,9.030290208333332,-0.367749375,-3.178989041666666,-0.00254791662408616,0.021176338145308345,0.07715271885373332,-0.026003945863295932,0.1427933281283871,0.06884419215233199,0.0,0.0,0.0,0.0,0.0,0.0
-0.1884955592153876,0.0041887902047863905,0.0041887902047863905,9.087495666666666,-0.26151066666666667,-3.2280222916666665,-0.00254791662408616,0.021176338145308345,0.07715271885373332,-0.026003945863295932,0.1427933281283871,0.06884419215233199,0.0,0.0,0.0,0.0,0.0,0.0
-0.19477874452256716,0.013962634015954637,0.006283185307179587,9.054806833333332,-0.29419949999999995,-3.2361945,-0.00254791662408616,0.021176338145308345,0.07715271885373332,-0.026003945863295932,0.1427933281283871,0.06884419215233199,0.0,0.0,0.0,0.0,0.0,0.0
-0.2017600615305445,0.019547687622336492,-0.0013962634015954637,9.242767624999999,-0.2860272916666666,-3.293399958333333,-0.00254791662408616,0.021176338145308345,0.07715271885373332,-0.026003945863295932,0.1427933281283871,0.06884419215233199,0.0,0.0,0.0,0.0,0.0,0.0
-0.2059488517353309,0.024434609527920613,-0.006283185307179587,9.26728425,-0.32688833333333334,-3.309744375,-0.00254791662408616,0.021176338145308345,0.07715271885373332,-0.026003945863295932,0.1427933281283871,0.06884419215233199,0.0,0.0,0.0,0.0,0.0,0.0
-0.21223203704251048,0.032812189937493394,-0.0153588974175501,9.528794916666666,-0.318716125,-3.4404997083333333,-0.00254791662408616,0.021176338145308345,0.07715271885373332,-0.026003945863295932,0.1427933281283871,0.06884419215233199,0.0,0.0,0.0,0.0,0.0,0.0
-0.2150245638457014,0.04537856055185257,-0.021642082724729686,9.643205833333333,-0.35957716666666667,-3.4650163333333333,-0.00254791662408616,0.021176338145308345,0.07715271885373332,-0.026003945863295932,0.1427933281283871,0.06884419215233199,0.0,0.0,0.0,0.0,0.0,0.0
-0.21642082724729686,0.05794493116621174,-0.02722713633111154,9.765788958333333,-0.416782625,-3.5957716666666664,-0.00254791662408616,0.021176338145308345,0.07715271885373332,-0.026003945863295932,0.1427933281283871,0.06884419215233199,0.0,0.0,0.0,0.0,0.0,0.0
-0.21711895894809458,0.07400196028455958,-0.023736477827122883,9.773961166666666,-0.45764366666666667,-3.6611493333333334,-0.00254791662408616,0.021176338145308345,0.07715271885373332,-0.026003945863295932,0.1427933281283871,0.06884419215233199,0.0,0.0,0.0,0.0,0.0,0.0
-0.2150245638457014,0.09075712110370514,-0.024434609527920613,9.790305583333332,-0.5148491249999999,-3.6693215416666662,-0.00254791662408616,0.021176338145308345,0.07715271885373332,-0.026003945863295932,0.1427933281283871,0.06884419215233199,0.0,0.0,0.0,0.0,0.0,0.0
-0.21223203704251048,0.11100294042683936,-0.02583087292951608,9.692239083333332,-0.5148491249999999,-3.6366327083333334,-0.00254791662408616,0.021176338145308345,0.07715271885373332,-0.026003945863295932,0.1427933281283871,0.06884419215233199,0.0,0.0,0.0,0.0,0.0,0.0
-0.21013764194011728,0.12147491593880534,-0.02024581932313422,9.610517,-0.5148491249999999,-3.5549106249999998,-0.00254791662408616,0.021176338145308345,0.07715271885373332,-0.026003945863295932,0.1427933281283871,0.06884419215233199,0.0,0.0,0.0,0.0,0.0,0.0
-0.2017600615305445,0.12845623294678266,-0.011868238913561441,9.406211791666665,-0.5557101666666666,-3.4241552916666667,-0.00254791662408616,0.021176338145308345,0.07715271885373332,-0.026003945863295932,0.1427933281283871,0.06884419215233199,-0.0013856576611227488,-0.004139672089938191,-0.003880489763511702,0.01331113451778954,-0.002724850041643095,0.005613173894479537
-0.1982694030265558,0.13683381335635544,-0.0041887902047863905,9.381695166666667,-0.53936575,-3.4323274999999995,-0.00254791662408616,0.021176338145308345,0.07715271885373332,-0.026003945863295932,0.1427933281283871,0.06884419215233199,-0.006814606474037883,-0.007117657165095206,-0.006496362724518194,0.07059434038204805,0.03775709392387032,-0.03478129611554499
-0.1850049007113989,0.1514945790731078,0.009075712110370514,9.242767624999999,-0.6047434166666666,-3.358777625,-0.00254791662408616,0.021176338145308345,0.07715271885373332,-0.026003945863295932,0.1427933281283871,0.06884419215233199,-0.008488106401168953,-0.008634167853334852,-0.009524872606815437,0.02987999424581147,0.004522907242118448,-0.01419105166717654
-0.16755160819145562,0.16824973989225336,0.027925268031909273,9.185562166666665,-0.6047434166666666,-3.3260887916666664,-0.00254791662408616,0.021176338145308345,0.07715271885373332,-0.026003945863295932,0.1427933281283871,0.06884419215233199,-0.007242407928703499,-0.008412497820743488,-0.009449959481251971,0.07069575052833635,0.003916809862298916,-0.05469156825059428
-0.153588974175501,0.18570303241219666,0.04677482395344803,9.046634625,-0.6047434166666666,-3.211677875,-0.00254791662408616,0.021176338145308345,0.07715271885373332,-0.026003945863295932,0.1427933281283871,0.06884419215233199,-0.005108913956180543,-0.004573448815183563,-0.005063278313252985,0.0176576604445829,-0.04568910271549922,-0.029777481254633947
-0.143116998663535,0.19477874452256716,0.057246799465414,9.013945791666666,-0.5066769166666666,-3.1463002083333333,-0.00254791662408616,0.021176338145308345,0.07715271885373332,-0.026003945863295932,0.1427933281283871,0.06884419215233199,-0.0035537643315455905,-0.006967621189925685,-0.006367578162821073,0.017759517447540868,-0.0050138833284033854,0.01961855811972454
-0.13543754995475996,0.20804324683772407,0.06981317007977318,8.981256958333333,-0.4903325,-3.178989041666666,-0.00254791662408616,0.021176338145308345,0.07715271885373332,-0.026003945863295932,0.1427933281283871,0.06884419215233199,-0.006119937171882019,-0.004040292013908975,-0.003423458454018661,-0.018945702990530354,-0.017539428329558043,0.05243091824134009
-0.12356931104119852,0.21642082724729686,0.0767944870877505,9.022118,-0.4494714583333333,-3.2770555416666665,-0.00254791662408616,0.021176338145308345,0.07715271885373332,-0.026003945863295932,0.1427933281283871,0.06884419215233199,-0.00039796072348677303,-0.00397748772230292,-0.003008447859772535,-0.04747936669130018,-0.02606469111826399,0.024315749266342668
-0.1228711793404008,0.2241002759560719,0.08237954069413235,9.1201845,-0.392266,-3.317916583333333,-0.00254791662408616,0.021176338145308345,0.07715271885373332,-0.026003945863295932,0.1427933281283871,0.06884419215233199,-0.002414833332932487,-0.0033010610071334563,-4.7241249864285794e-05,-0.010695761945700006,-0.04635632569491842,0.0325612777935853
-0.11798425743481668,0.23108159296404923,0.08307767239493008,9.144701125,-0.29419949999999995,-3.3751220416666667,-0.00254791662408616,0.021176338145308345,0.07715271885373332,-0.026003945863295932,0.1427933281283871,0.06884419215233199,0.0031677111242270567,-0.0031636295566683736,0.005872813881085602,-0.003655739719977078,-0.058763737567770556,0.19304968854896104
-0.12426744274199628,0.23736477827122882,0.07120943348136866,9.259112041666667,-0.13892754166666665,-3.3832942499999996,-0.00254791662408616,0.021176338145308345,0.07715271885373332,-0.026003945863295932,0.1427933281283871,0.06884419215233199,0.004656936691649283,0.0022163506119275565,0.007335655570207766,-0.03906402277763533,-0.07881216304240253,-0.008057357668237921
-0.13334315485236678,0.2331759880664424,0.056548667764616284,9.340834124999999,0.024516625,-3.358777625,-0.00254791662408616,0.021176338145308345,0.07715271885373332,-0.026003945863295932,0.1427933281283871,0.06884419215233199,0.00456029819172565,-0.00038945518653055053,0.01402282588743779,-0.08010408080568346,-0.049284292012119466,0.020870213292043346
-0.143116998663535,0.23387411976724018,0.028623399732707,9.504278291666665,0.13075533333333333,-3.391466458333333,-0.00254791662408616,0.021176338145308345,0.07715271885373332,-0.026003945863295932,0.1427933281283871,0.06884419215233199,0.008062799398862994,-0.0010687884821093635,0.005641963357040508,-0.022723061159787717,0.016436314856756215,0.01672123175905952
-0.15847589608108512,0.23596851486963336,0.017453292519943295,9.553311541666666,0.10623870833333333,-3.415983083333333,-0.00254791662408616,0.021176338145308345,0.07715271885373332,-0.026003945863295932,0.1427933281283871,0.06884419215233199,0.0053216781699454655,-0.0046743289760711165,0.009715464417219155,-0.04725103195355557,0.013006532494997988,0.008713662817467091
-0.1689478715930511,0.24504422698000386,-0.0020943951023931952,9.651378041666666,0.08989429166666667,-3.4241552916666667,-0.00254791662408616,0.021176338145308345,0.07715271885373332,-0.026003945863295932,0.1427933281283871,0.06884419215233199,-0.0010550249287782742,-0.002488814007941867,0.0037976743912355062,0.08361506714474744,0.058113955055210526,-0.04034082562040549
-0.1668534764906579,0.249931148885588,-0.009773843811168246,9.487933875,-0.016344416666666667,-3.334261,-0.00254791662408616,0.021176338145308345,0.07715271885373332,-0.026003945863295932,0.1427933281283871,0.06884419215233199,-0.0008167144422298205,-0.0038042733406677375,0.0050690609261370145,0.04689094131307898,0.02562949613113829,-0.007515688037545368
-0.16545721308906244,0.25761059759436306,-0.019547687622336492,9.398039583333333,-0.057205458333333334,-3.309744375,-0.00254791662408616,0.021176338145308345,0.07715271885373332,-0.026003945863295932,0.1427933281283871,0.06884419215233199,-0.000914062194941063,-0.0019015010657306062,-0.00041350392368703703,0.11631156561586217,0.013442869040934495,-0.02802554169217706
-0.16406094968746698,0.2617993877991494,-0.01884955592153876,9.16921775,-0.07354987499999999,-3.2443667083333327,-0.00254791662408616,0.021176338145308345,0.07715271885373332,-0.026003945863295932,0.1427933281283871,0.06884419215233199,-0.001793510581810063,-0.003040701538469434,0.0015968183238717958,0.038782560756179016,0.0052706650296635935,0.025215852456958367
-0.15987215948268058,0.2673844414055313,-0.02234021442552742,9.095667875,-0.07354987499999999,-3.2852277500000002,-0.00254791662408616,0.021176338145308345,0.07715271885373332,-0.026003945863295932,0.1427933281283871,0.06884419215233199,-0.0028200919669146176,-0.0004127320260649567,-0.0014949360476943523,0.12053887925283396,0.058226165984153484,-0.0483909278186867
-0.15428710587629874,0.26878070480712674,-0.01884955592153876,8.858673833333333,-0.17978858333333333,-3.178989041666666,-0.00254791662408616,0.021176338145308345,0.07715271885373332,-0.026003945863295932,0.1427933281283871,0.06884419215233199,-0.005207280998677217,-0.0018145283169762924,-0.0011776350294888053,0.07486672180038341,0.02393037967125926,0.1784451058245522
-0.14381513036433274,0.2722713633111154,-0.016755160819145562,8.785123958333333,-0.21247741666666667,-3.138128,-0.00254791662408616,0.021176338145308345,0.07715271885373332,-0.026003945863295932,0.1427933281283871,0.06884419215233199,-0.00430710572988951,0.001938911019821606,-0.0032066784133379152,0.14083850863510022,0.0578980723392507,-0.06083551733252506
-0.13543754995475996,0.268082573106329,-0.010471975511965976,8.507268875,-0.318716125,-3.0073726666666665,-0.00254791662408616,0.021176338145308345,0.07715271885373332,-0.026003945863295932,0.1427933281283871,0.06884419215233199,-0.0029778700990288577,0.0007857575504857313,-0.0016501419977483509,-0.038778864833910395,0.004543126630239594,0.07791954949739878
-0.1291543646475804,0.26668630970473356,-0.006981317007977318,8.588990958333333,-0.318716125,-3.1544724166666662,-0.00254791662408616,0.021176338145308345,0.07715271885373332,-0.026003945863295932,0.1427933281283871,0.06884419215233199,-0.005946784501616142,-0.0007757105792897799,-0.00537421947032622,0.022471676712549328,0.0002615964890335635,0.02903495668502314
-0.11728612573401893,0.268082573106329,0.003490658503988659,8.548129916666667,-0.3105439166666667,-3.2035056666666666,-0.00254791662408616,0.021176338145308345,0.07715271885373332,-0.026003945863295932,0.1427933281283871,0.06884419215233199,0.0017538662333371922,0.0017309632421348264,0.0007528302730430198,-0.08387760032818178,-0.040620588010157506,0.057821007217311766
-0.12077678423800758,0.2645919146023404,0.0020943951023931952,8.719746291666667,-0.220649625,-3.309744375,-0.00254791662408616,0.021176338145308345,0.07715271885373332,-0.026003945863295932,0.1427933281283871,0.06884419215233199,0.0019542620662603765,0.0031635894206006733,0.0009410210312365421,0.006041652267777586,-0.012028982679342045,0.016670605842182815
-0.124965574442794,0.2583087292951608,0.0006981317007977319,8.711574083333332,-0.18796079166666665,-3.334261,-0.00254791662408616,0.021176338145308345,0.07715271885373332,-0.026003945863295932,0.1427933281283871,0.06884419215233199,0.004451039384167872,0.0020519736625844573,0.007384541766274208,-0.09205805814071771,-0.04842165317854824,0.008611515308750206
-0.1340412865531645,0.2541199390903744,-0.013962634015954637,8.899534874999999,-0.08172208333333333,-3.342433208333333,-0.00254791662408616,0.021176338145308345,0.07715271885373332,-0.026003945863295932,0.1427933281283871,0.06884419215233199,0.006607861863505438,0.00437955863488222,0.006384268892100277,0.014284154271389633,-0.01544890248827729,-0.003845100128983083
-0.1466076571675237,0.2457423586808016,-0.02652900463031381,8.87501825,-0.04086104166666667,-3.3260887916666664,-0.00254791662408616,0.021176338145308345,0.07715271885373332,-0.026003945863295932,0.1427933281283871,0.06884419215233199,0.0057702635591736755,0.009203464646997507,0.009048039524565985,-0.13324071177729743,-0.02727411436772627,-0.016116190363955188
-0.15847589608108512,0.22689280275926282,-0.04537856055185257,9.144701125,0.024516625,-3.2852277500000002,-0.00254791662408616,0.021176338145308345,0.07715271885373332,-0.026003945863295932,0.1427933281283871,0.06884419215233199,0.007623312531574806,0.004113709861392405,0.01243955392327608,-0.0514529583303058,0.002133921234212373,0.024301729042711016
-0.17383479349863523,0.21851522234969004,-0.06981317007977318,9.250939833333334,0.032688833333333334,-3.3260887916666664,-0.00254791662408616,0.021176338145308345,0.07715271885373332,-0.026003945863295932,0.1427933281283871,0.06884419215233199,0.00563033330720604,0.004929140378108521,0.005790834847348412,-0.11757125150485892,-0.04079500049599846,0.2103302253089391
-0.1850049007113989,0.20943951023931953,-0.08098327729253688,9.520622708333333,0.08989429166666667,-3.309744375,-0.00254791662408616,0.021176338145308345,0.07715271885373332,-0.026003945863295932,0.1427933281283871,0.06884419215233199,0.0016293071025174782,0.0010760863076502878,0.0030045428167723566,0.02598335833829634,0.03136943475059713,-0.04122971485256164
-0.18779742751458986,0.20734511513692636,-0.08726646259971647,9.471589458333332,0.04086104166666667,-3.219850083333333,-0.00254791662408616,0.021176338145308345,0.07715271885373332,-0.026003945863295932,0.1427933281283871,0.06884419215233199,0.00019011214634246707,0.00370410996808982,0.0036317087388325247,0.001354875423427113,0.015404859594532222,-0.01279473896270775
-0.1884955592153876,0.1996656664281513,-0.0942477796076938,9.471589458333332,0.024516625,-3.18716125,-0.00254791662408616,0.021176338145308345,0.07715271885373332,-0.026003945863295932,0.1427933281283871,0.06884419215233199,0.00029080995262509014,-0.0018419568385421104,-0.0005391874656557233,0.14037088587559843,-0.009293781416864962,-0.04563000673042016
-0.18919369091618532,0.20315632493213995,-0.09354964790689606,9.193734375,0.057205458333333334,-3.0890947499999997,-0.00254791662408616,0.021176338145308345,0.07715271885373332,-0.026003945863295932,0.1427933281283871,0.06884419215233199,-0.002189420427351681,0.0006452424166408663,-0.0037846890633394734,0.07497557824128596,0.0028984951326501136,-0.0007402572313269783
-0.18430676901060122,0.2017600615305445,-0.08587019919812101,9.046634625,0.06537766666666667,-3.0809225416666663,-0.00254791662408616,0.021176338145308345,0.07715271885373332,-0.026003945863295932,0.1427933281283871,0.06884419215233199,-0.002371487503681217,0.001803753296966157,-0.0015552692892352527,0.15249868346984838,0.04748567383246287,-0.04586560052459823
-0.18011797880581482,0.1982694030265558,-0.08237954069413235,8.744262916666667,-0.016344416666666667,-2.982856041666666,-0.00254791662408616,0.021176338145308345,0.07715271885373332,-0.026003945863295932,0.1427933281283871,0.06884419215233199,-0.00033721377968152594,0.003615967976872034,0.0019610549324233667,0.10343211251001731,0.022679973454199788,-0.009326439356605355
-0.17872171540421936,0.19058995431778078,-0.08656833089891874,8.539957708333333,-0.04903325,-2.9583394166666666,-0.00254791662408616,0.021176338145308345,0.07715271885373332,-0.026003945863295932,0.1427933281283871,0.06884419215233199,-0.004141286611644734,0.0033499133474787987,-0.00019803756085991743,0.1197181605976074,0.05544960380600627,0.0068922662842352544
-0.1710422666954443,0.18430676901060122,-0.08587019919812101,8.302963666666667,-0.14709974999999997,-2.966511625,-0.00254791662408616,0.021176338145308345,0.07715271885373332,-0.026003945863295932,0.1427933281283871,0.06884419215233199,-0.005249223656989752,0.0032044995082911557,-0.0032112036742162147,-0.011006995040663948,0.07580527751581433,0.06365583052839167
-0.1605702911834783,0.17732545200262387,-0.07958701389094143,8.327480291666665,-0.2860272916666666,-3.0890947499999997,-0.00254791662408616,0.021176338145308345,0.07715271885373332,-0.026003945863295932,0.1427933281283871,0.06884419215233199,-0.008300704261950155,-0.0005145282331726682,-0.005826834481603179,0.04226302964623545,0.0181062899314864,0.04336093802167918
-0.14381513036433274,0.17872171540421936,-0.06771877497737998,8.245758208333333,-0.3105439166666667,-3.170816833333333,-0.00254791662408616,0.021176338145308345,0.07715271885373332,-0.026003945863295932,0.1427933281283871,0.06884419215233199,-0.007074371860718005,0.002038572992787182,-0.009325123835802113,-0.0206671512350578,-0.03995279523258487,0.2664082800777204
-0.1291543646475804,0.17523105690023066,-0.04956735075663895,8.28661925,-0.318716125,-3.219850083333333,-0.00254791662408616,0.021176338145308345,0.07715271885373332,-0.026003945863295932,0.1427933281283871,0.06884419215233199,-0.005168454170997155,0.002296982012459952,-0.004723180601413213,-0.031353080843846845,-0.015246219916902783,0.026716506423599583
-0.11868238913561441,0.17034413499464657,-0.039793506945470715,8.351996916666666,-0.2778550833333333,-3.268883333333333,-0.00254791662408616,0.021176338145308345,0.07715271885373332,-0.026003945863295932,0.1427933281283871,0.06884419215233199,-0.004869396519441823,0.005669366317883426,-0.011446445958858034,-0.04385429150352346,-0.007567521677522552,-0.009865775958240943
-0.1096066770252439,0.15917402778188286,-0.016755160819145562,8.441891208333333,-0.2533384583333333,-3.2443667083333327,-0.00254791662408616,0.021176338145308345,0.07715271885373332,-0.026003945863295932,0.1427933281283871,0.06884419215233199,-0.004254408653099772,0.004529508856518996,-0.005459032036253411,-0.10921919752173137,-0.028206490165246564,0.018469738106501616
-0.10053096491487339,0.15009831567151233,-0.005585053606381855,8.662540833333333,-0.18796079166666665,-3.2770555416666665,-0.00254791662408616,0.021176338145308345,0.07715271885373332,-0.026003945863295932,0.1427933281283871,0.06884419215233199,-0.0023184346781530037,0.007348733387040654,-0.006009343407391228,-0.09714540639601565,-0.04070197826768069,-0.030742207288423282
-0.09634217471008698,0.13543754995475996,0.006283185307179587,8.858673833333333,-0.0980665,-3.211677875,-0.00254791662408616,0.021176338145308345,0.07715271885373332,-0.026003945863295932,0.1427933281283871,0.06884419215233199,-0.0003061904292955947,0.003514553534916241,-0.001036047727818397,-0.0686728553671739,-0.03280700979287576,0.022097705539601213
-0.09494591130849153,0.12845623294678266,0.008377580409572781,8.997601374999999,-0.024516625,-3.2525389166666665,-0.00254791662408616,0.021176338145308345,0.07715271885373332,-0.026003945863295932,0.1427933281283871,0.06884419215233199,-0.003813201863986826,0.003758191299076403,-0.0016308435149361708,-0.07676502655410763,-0.03697499455721649,-0.018799595746169233
-0.0879645943005142,0.12077678423800758,0.011868238913561441,9.152873333333332,0.057205458333333334,-3.211677875,-0.00254791662408616,0.021176338145308345,0.07715271885373332,-0.026003945863295932,0.1427933281283871,0.06884419215233199,-0.0011910564380635388,-0.0002708494820175402,0.003153866696437568,-0.007530368167358614,-0.0206628295474068,-0.010825001764746134
-0.08517206749732328,0.12077678423800758,0.005585053606381855,9.16921775,0.10623870833333333,-3.18716125,-0.00254791662408616,0.021176338145308345,0.07715271885373332,-0.026003945863295932,0.1427933281283871,0.06884419215233199,-0.000803198371286857,0.0029208725611660695,-0.0025266099281299136,0.04158510741689407,0.02419144452978064,-0.04740335337939446
-0.08377580409572781,0.11519173063162574,0.010471975511965976,9.087495666666666,0.06537766666666667,-3.0890947499999997,-0.00254791662408616,0.021176338145308345,0.07715271885373332,-0.026003945863295932,0.1427933281283871,0.06884419215233199,-0.0005699842709245335,-0.0019228728235218806,4.984508813932582e-05,0.08633109742225445,-0.05750595329420412,-0.027143052369517494
-0.08237954069413235,0.11938052083641214,0.010471975511965976,8.915879291666666,0.18796079166666665,-3.0318892916666664,-0.00254791662408616,0.021176338145308345,0.07715271885373332,-0.026003945863295932,0.1427933281283871,0.06884419215233199,-0.0006147131022739615,0.003211347943727052,-0.0018935311617285812,0.14875012253172398,-0.05993110329566664,0.24609580289346866
-0.08098327729253688,0.11309733552923257,0.014660765716752367,8.629852,0.14709974999999997,-2.974683833333333,-0.00254791662408616,0.021176338145308345,0.07715271885373332,-0.026003945863295932,0.1427933281283871,0.06884419215233199,-0.0028748318010485257,0.0029304457170425645,0.0018227425021480057,0.016915624190750034,-0.01277797032889362,-0.010984801535435277
-0.07539822368615504,0.1075122819228507,0.010471975511965976,8.597163166666666,0.17978858333333333,-2.9501672083333332,-0.00254791662408616,0.021176338145308345,0.07715271885373332,-0.026003945863295932,0.1427933281283871,0.06884419215233199,-0.0011296571977407225,0.003361669699259959,-0.003381024571388087,0.14339845281887253,0.011589739255577979,-0.023572521892782628
-0.07330382858376185,0.10053096491487339,0.017453292519943295,8.311135875,0.16344416666666667,-2.9011339583333333,-0.00254791662408616,0.021176338145308345,0.07715271885373332,-0.026003945863295932,0.1427933281283871,0.06884419215233199,-0.0007507898989508456,0.0035403115567443385,-0.002781072374262181,0.0413825432042636,-0.02106172470972217,-0.00725965859244866
-0.07190756518216637,0.09354964790689606,0.023038346126325153,8.229413791666666,0.21247741666666667,-2.8847895416666667,-0.00254791662408616,0.021176338145308345,0.07715271885373332,-0.026003945863295932,0.1427933281283871,0.06884419215233199,-0.0002211271093723526,0.0026367766621418474,-0.005642204129946553,0.05753813344747248,0.06437822006112347,-0.01567223999190882
-0.07120943348136866,0.08866272600131193,0.03420845333908886,8.115002875,0.08989429166666667,-2.852100708333333,-0.00254791662408616,0.021176338145308345,0.07715271885373332,-0.026003945863295932,0.1427933281283871,0.06884419215233199,-0.0031580424382583335,0.0005239929926306632,-0.005343380932872398,-0.011934421968238419,-0.0011086987459291275,-0.028109850499498084
-0.06492624817418906,0.08726646259971647,0.04537856055185257,8.139519499999999,0.0980665,-2.7948952499999997,-0.00254791662408616,0.021176338145308345,0.07715271885373332,-0.026003945863295932,0.1427933281283871,0.06884419215233199,-0.0033164202793955376,0.0015593242671898982,-0.0061143409816485595,0.04125038234125201,-0.013820018732345084,-0.027860710693512085
-0.05794493116621174,0.08377580409572781,0.057246799465414,8.057797416666666,0.13075533333333333,-2.7376897916666665,-0.00254791662408616,0.021176338145308345,0.07715271885373332,-0.026003945863295932,0.1427933281283871,0.06884419215233199,-0.0009869154840127464,-0.00297291178478122,-0.0032589440268298003,-0.0650542204650168,-0.05493714293552485,0.03319145354715132
-0.05585053606381855,0.09005898940290741,0.06422811647339133,8.18855275,0.24516625,-2.803067458333333,-0.00254791662408616,0.021176338145308345,0.07715271885373332,-0.026003945863295932,0.1427933281283871,0.06884419215233199,-0.0018936511212001065,0.00035031539671369783,-0.005875401002542409,0.04117647503251956,-0.005921020234835828,-0.0074571731866350825
-0.05235987755982988,0.08936085770210968,0.07609635538695278,8.106830666666665,0.26151066666666667,-2.7867230416666664,-0.00254791662408616,0.021176338145308345,0.07715271885373332,-0.026003945863295932,0.1427933281283871,0.06884419215233199,0.0008960728219405623,-0.0028053135630774603,-0.0018473122030748794,-0.0035885549959877115,-0.04704563416107206,-0.019780053633248303
-0.05445427266222308,0.09494591130849153,0.07958701389094143,8.115002875,0.35957716666666667,-2.7458620000000002,-0.00254791662408616,0.021176338145308345,0.07715271885373332,-0.026003945863295932,0.1427933281283871,0.06884419215233199,-0.00048114082883715545,0.004385616133417553,-0.003129368161477187,0.17800567669599648,-0.13955430144265474,0.2401224907195268
-0.05305800926062762,0.08726646259971647,0.08587019919812101,7.837147791666666,0.416782625,-2.6477955,-0.00254791662408616,0.021176338145308345,0.07715271885373332,-0.026003945863295932,0.1427933281283871,0.06884419215233199,-0.00025424800729553407,0.001985397715312373,-0.0036344112939638703,-0.02421698270269287,-0.05137055774888909,0.01680863309030682
-0.05235987755982988,0.08307767239493008,0.09285151620609833,7.886181041666666,0.5230213333333333,-2.680484333333333,-0.00254791662408616,0.021176338145308345,0.07715271885373332,-0.026003945863295932,0.1427933281283871,0.06884419215233199,0.0015812929022828949,0.001227345109165932,-0.0023411243057043117,0.08600963180600678,0.030330508856387186,-0.007533516962612632
-0.05585053606381855,0.08028514559173915,0.09773843811168245,7.714564666666666,0.465815875,-2.6641399166666666,-0.00254791662408616,0.021176338145308345,0.07715271885373332,-0.026003945863295932,0.1427933281283871,0.06884419215233199,0.00398880474327855,0.004568306260495828,2.5770908900001874e-05,-0.028284778650956865,-0.04330668467248571,0.012466280344491446
-0.0635299847725936,0.07120943348136866,0.09773843811168245,7.771770125,0.5557101666666666,-2.6886565416666666,-0.00254791662408616,0.021176338145308345,0.07715271885373332,-0.026003945863295932,0.1427933281283871,0.06884419215233199,0.0012765581769008125,0.0012876938838803998,-0.0006572478638558884,0.057518177210749505,0.0425082168476274,-0.05681844382999592
-0.06562437987498679,0.06841690667817772,0.0991347015132779,7.657359208333333,0.4739880833333333,-2.574245625,-0.00254791662408616,0.021176338145308345,0.07715271885373332,-0.026003945863295932,0.1427933281283871,0.06884419215233199,0.001750240365978181,0.0033312564762792716,-0.0023429386317282527,0.03277866221824701,-0.03930624257523396,-0.024301113184654
-0.06911503837897544,0.06213372137099814,0.10402162341886204,7.591981541666666,0.5557101666666666,-2.5252123749999997,-0.00254791662408616,0.021176338145308345,0.07715271885373332,-0.026003945863295932,0.1427933281283871,0.06884419215233199,0.00012583225303182592,0.003745004520360509,0.0022037752590985046,0.08183738325199832,0.017997873286831983,-0.03693006519720988
-0.06981317007977318,0.05445427266222308,0.09983283321407566,7.428537374999999,0.5230213333333333,-2.4516625,-0.00254791662408616,0.021176338145308345,0.07715271885373332,-0.026003945863295932,0.1427933281283871,0.06884419215233199,0.0018792721940127561,0.00522380469210564,0.006996533174703001,-0.07355617266632399,-0.026943948040424253,-0.01644128891637524
-0.07330382858376185,0.0439822971502571,0.08587019919812101,7.575637124999999,0.5802267916666666,-2.4189736666666666,-0.00254791662408616,0.021176338145308345,0.07715271885373332,-0.026003945863295932,0.1427933281283871,0.06884419215233199,-0.00039592529104095,0.0034053355129619127,0.007054153361027425,0.07360054457672406,-0.0019685734328916526,-0.04512568584870845
-0.07260569688296412,0.03700098014227979,0.07120943348136866,7.428537374999999,0.5883989999999999,-2.3290793749999996,-0.00254791662408616,0.021176338145308345,0.07715271885373332,-0.026003945863295932,0.1427933281283871,0.06884419215233199,-0.0014559755715191844,0.0066746812506733415,0.009462956069806338,-0.03277993053412583,-0.0017884499659167154,-0.029211877221889688
-0.06981317007977318,0.023736477827122883,0.05305800926062762,7.493915041666666,0.5965712083333333,-2.2718739166666664,-0.00254791662408616,0.021176338145308345,0.07715271885373332,-0.026003945863295932,0.1427933281283871,0.06884419215233199,0.0026458569220314614,0.003564719530898122,0.0035343690505528443,0.14246576725022767,-0.1270316993273716,0.2438918942327627
-0.0747000919853573,0.017453292519943295,0.046076692252650306,7.412192958333333,0.53936575,-2.1492907916666666,-0.00254791662408616,0.021176338145308345,0.07715271885373332,-0.026003945863295932,0.1427933281283871,0.06884419215233199,0.00040137534857299126,0.007750601675054875,0.00283003269933185,-0.020485194251982856,-0.04639724980149756,0.003139248305116286
-0.07539822368615504,0.0013962634015954637,0.04049163864626844,7.453054,0.63743225,-2.157463,-0.00254791662408616,0.021176338145308345,0.07715271885373332,-0.026003945863295932,0.1427933281283871,0.06884419215233199,0.002768504349561127,-0.0005269605181222954,-0.0010645632851249945,0.024085333353903216,0.023091955789328423,-0.046066814587093004
-0.08098327729253688,0.0027925268031909274,0.04258603374866164,7.40402075,0.5965712083333333,-2.0675687083333334,-0.00254791662408616,0.021176338145308345,0.07715271885373332,-0.026003945863295932,0.1427933281283871,0.06884419215233199,0.0005868801420291186,0.005407147388982457,-0.003962107853101099,-0.008347672724636513,0.06809707146393897,-0.0622641159773407
-0.08168140899333462,-0.00767944870877505,0.05026548245743669,7.420365166666667,0.465815875,-1.9449855833333332,-0.00254791662408616,0.021176338145308345,0.07715271885373332,-0.026003945863295932,0.1427933281283871,0.06884419215233199,0.0013102757527051227,0.0009017752033954791,-0.0010137672079799933,0.04453787709807945,0.06374120345237114,-0.013408714530491918
-0.08517206749732328,-0.009773843811168246,0.05235987755982988,7.3304708750000005,0.34323275000000003,-1.9204689583333332,-0.00254791662408616,0.021176338145308345,0.07715271885373332,-0.026003945863295932,0.1427933281283871,0.06884419215233199,-0.0024275041865483523,0.0027465901454492075,-0.0031593144661271914,0.0529155269159101,0.022843901855955452,-0.005432817247371829
-0.08028514559173915,-0.0153588974175501,0.05864306286700947,7.224232166666667,0.3023717083333333,-1.9122967499999999,-0.00254791662408616,0.021176338145308345,0.07715271885373332,-0.026003945863295932,0.1427933281283871,0.06884419215233199,-0.0021745089536008037,-0.0017822846033858429,-0.006132638956156702,0.10185281117569814,0.002160185434645981,-0.0015287302341785948
-0.07539822368615504,-0.011868238913561441,0.07120943348136866,7.019926958333333,0.3023717083333333,-1.9122967499999999,-0.00254791662408616,0.021176338145308345,0.07715271885373332,-0.026003945863295932,0.1427933281283871,0.06884419215233199,-0.0029226779036652228,0.0012663076601632276,-0.0037972102030792137,0.06923371621464669,-0.05514678131030027,-0.009294663948846121
-0.06981317007977318,-0.014660765716752367,0.07888888219014369,6.880999416666667,0.416782625,-1.8959523333333332,-0.00254791662408616,0.021176338145308345,0.07715271885373332,-0.026003945863295932,0.1427933281283871,0.06884419215233199,0.003860778395380153,0.0002677723957111534,-0.0035478947333337316,0.11813191201077931,-0.01847238119016391,0.015081932296123889
-0.07749261878854824,-0.0153588974175501,0.08587019919812101,6.644005375,0.45764366666666667,-1.9286411666666665,-0.00254791662408616,0.021176338145308345,0.07715271885373332,-0.026003945863295932,0.1427933281283871,0.06884419215233199,0.0013340132131558899,0.005488411357301515,-0.005072664737725136,0.08537707187291764,-0.026772190774765867,-0.005478502109886611
-0.08028514559173915,-0.02583087292951608,0.09564404300928926,6.472389,0.5148491249999999,-1.9204689583333332,-0.00254791662408616,0.021176338145308345,0.07715271885373332,-0.026003945863295932,0.1427933281283871,0.06884419215233199,0.0020925600267355507,0.001389340992987004,-0.0020491564088277957,0.05697182435017027,-0.02283117496899474,0.0026839673083413184
-0.08447393579652555,-0.028623399732707,0.09983283321407566,6.357978083333332,0.563882375,-1.9286411666666665,-0.00254791662408616,0.021176338145308345,0.07715271885373332,-0.026003945863295932,0.1427933281283871,0.06884419215233199,0.002561633099189195,0.005221292257878343,-0.005581480597672292,0.10582949858598004,-0.03532309406553197,-0.0464747406827145
-0.08936085770210968,-0.039095375244672985,0.11100294042683936,6.145500666666667,0.63743225,-1.838746875,-0.00254791662408616,0.021176338145308345,0.07715271885373332,-0.026003945863295932,0.1427933281283871,0.06884419215233199,0.004761492755602055,0.0054016294248213585,0.00046499429780911937,-0.0045502220124882115,-0.006478573679557885,0.014661650712783036
-0.09843656981248018,-0.05026548245743669,0.11030480872604163,6.153672874999999,0.6537766666666667,-1.871435708333333,-0.00254791662408616,0.021176338145308345,0.07715271885373332,-0.026003945863295932,0.1427933281283871,0.06884419215233199,0.0029396667096603987,0.004105508896750097,0.000310797557150757,0.007698079337303621,0.08329514681993729,0.014520761590694906
-0.10471975511965977,-0.05794493116621174,0.11030480872604163,6.137328458333333,0.4903325,-1.9041245416666663,-0.00254791662408616,0.021176338145308345,0.07715271885373332,-0.026003945863295932,0.1427933281283871,0.06884419215233199,0.002722973752450464,0.0017378975506793593,-0.002643908615345598,-0.03710674878424863,0.026174160630510267,0.014432566605840321
-0.11030480872604163,-0.0614355896702004,0.11519173063162574,6.210878333333333,0.44129925,-1.936813375,-0.00254791662408616,0.021176338145308345,0.07715271885373332,-0.026003945863295932,0.1427933281283871,0.06884419215233199,-0.002061448461684404,0.00029212004928115337,-0.007994416855721288,0.032012655358793704,0.0627466735897627,-0.006022062573144712
-0.10611601852125524,-0.06213372137099814,0.13124875974997358,6.145500666666667,0.318716125,-1.9286411666666665,-0.00254791662408616,0.021176338145308345,0.07715271885373332,-0.026003945863295932,0.1427933281283871,0.06884419215233199,-0.00574286901160243,0.0007902036318688215,-0.008490966064763968,0.00778052800027629,0.0583500259063493,-0.04685988847922416
-0.0942477796076938,-0.0635299847725936,0.14800392056911915,6.129156249999999,0.20430520833333332,-1.838746875,-0.00254791662408616,0.021176338145308345,0.07715271885373332,-0.026003945863295932,0.1427933281283871,0.06884419215233199,-0.007076066611040085,0.001970158484167577,-0.008109833885662691,0.028055765117374145,0.05395540635678148,-0.02253349591389466
-0.08028514559173915,-0.06771877497737998,0.16406094968746698,6.071950791666666,0.0980665,-1.7978858333333332,-0.00254791662408616,0.021176338145308345,0.07715271885373332,-0.026003945863295932,0.1427933281283871,0.06884419215233199,-0.007587185222169416,0.0015810332111147127,-0.007131738567517807,-0.04145704141660328,0.008579718094542986,0.018343087553326486
-0.06492624817418906,-0.07120943348136866,0.17872171540421936,6.153672874999999,0.08172208333333333,-1.838746875,-0.00254791662408616,0.021176338145308345,0.07715271885373332,-0.026003945863295932,0.1427933281283871,0.06884419215233199,-0.007112254269543227,0.004116904402179234,-0.0050793551419236836,-0.025174806502678903,0.03696106516597545,-0.018637171001221895
-0.050963614158234416,-0.07888888219014369,0.18919369091618532,6.202706124999999,0.008172208333333333,-1.8060580416666667,-0.00254791662408616,0.021176338145308345,0.07715271885373332,-0.026003945863295932,0.1427933281283871,0.06884419215233199,-0.006358421764668882,0.0016799806232540774,0.0019907577601208917,-0.07820592428873265,-0.05707442500565027,0.038552664559009985
-0.03769911184307752,-0.08237954069413235,0.1850049007113989,6.357978083333332,0.122583125,-1.887780125,-0.00254791662408616,0.021176338145308345,0.07715271885373332,-0.026003945863295932,0.1427933281283871,0.06884419215233199,-0.0043141548017963435,0.00026519936222926295,0.004847123819668702,0.4993555866213454,-0.4238389890724447,0.34459492205503894
-0.029321531433504733,-0.08098327729253688,0.1759291886010284,6.235394958333333,0.196133,-1.887780125,-0.00254791662408616,0.021176338145308345,0.07715271885373332,-0.026003945863295932,0.1427933281283871,0.06884419215233199,-0.00026583319062225045,0.0014397025051706759,0.00921426965315824,-0.06597256499565204,-0.0569116521278225,0.0018110656058533757
-0.028623399732707,-0.08447393579652555,0.15707963267948966,6.366150291666666,0.3105439166666667,-1.8959523333333332,-0.00254791662408616,0.021176338145308345,0.07715271885373332,-0.026003945863295932,0.1427933281283871,0.06884419215233199,0.0031091073626635882,0.002875452639003414,0.008508880828184491,0.044362357253864684,0.0006245042834497464,0.005662940004848945
-0.03490658503988659,-0.09005898940290741,0.14032447186034408,6.276256,0.3105439166666667,-1.9122967499999999,-0.00254791662408616,0.021176338145308345,0.07715271885373332,-0.026003945863295932,0.1427933281283871,0.06884419215233199,-8.32783665419685e-05,0.0016907785706305213,0.0065431471776568745,-0.03740600181831974,-0.02756052865355393,0.005761120380576007
-0.03490658503988659,-0.09354964790689606,0.1270599695451872,6.3498058749999995,0.367749375,-1.9286411666666665,-0.00254791662408616,0.021176338145308345,0.07715271885373332,-0.026003945863295932,0.1427933281283871,0.06884419215233199,-0.0013726416682186134,0.0024570190297434923,0.000894126612097302,0.08113124956817054,0.045918900021577766,-0.03529383431295914
-0.032114058236695664,-0.09843656981248018,0.12566370614359174,6.186361708333333,0.2778550833333333,-1.8632635,-0.00254791662408616,0.021176338145308345,0.07715271885373332,-0.026003945863295932,0.1427933281283871,0.06884419215233199,-0.0020532489399195573,0.0033033772275135485,-0.0012839676198215003,-0.033501073483659,0.04174963538083613,0.034181585276207495
-0.027925268031909273,-0.1054178868204575,0.12845623294678266,6.251739374999999,0.196133,-1.936813375,-0.00254791662408616,0.021176338145308345,0.07715271885373332,-0.026003945863295932,0.1427933281283871,0.06884419215233199,-0.003731359677646613,0.0011331753143199361,-0.005165479865494891,0.056568648742629096,0.041941946177419774,-0.010980245444356345
-0.02024581932313422,-0.10681415022205297,0.13892820845874865,6.137328458333333,0.11441091666666667,-1.9204689583333332,-0.00254791662408616,0.021176338145308345,0.07715271885373332,-0.026003945863295932,0.1427933281283871,0.06884419215233199,-0.0038633586359808902,0.0005318445181056416,-0.0017208227851709997,-0.03770873808321398,-0.0035916842946912644,0.03013200056254527
-0.012566370614359173,-0.10821041362364843,0.1424188669627373,6.210878333333333,0.122583125,-1.985846625,-0.00254791662408616,0.021176338145308345,0.07715271885373332,-0.026003945863295932,0.1427933281283871,0.06884419215233199,-0.003195601301602162,-0.0007071784400369301,-0.0008812578114384954,0.06876103624847281,0.004925402555350119,0.04222220069967339
-0.006283185307179587,-0.10681415022205297,0.14381513036433274,6.071950791666666,0.11441091666666667,-2.0757409166666667,-0.00254791662408616,0.021176338145308345,0.07715271885373332,-0.026003945863295932,0.1427933281283871,0.06884419215233199,0.0010129270957883732,0.0021145838787957187,0.0022699475384692653,0.2862004543202464,-0.26995124351823313,0.021372855083489496
-0.00767944870877505,-0.11030480872604163,0.13962634015954636,6.104639625,0.2533384583333333,-2.132946375,-0.00254791662408616,0.021176338145308345,0.07715271885373332,-0.026003945863295932,0.1427933281283871,0.06884419215233199,0.0009107280906501099,-0.0008587795861582887,0.0020175827906057688,0.0685887972419349,0.008862093432851539,0.021737077784677563
-0.009773843811168246,-0.10821041362364843,0.1361356816555577,5.965712083333332,0.23699404166666665,-2.181979625,-0.00254791662408616,0.021176338145308345,0.07715271885373332,-0.026003945863295932,0.1427933281283871,0.06884419215233199,0.003145568877520711,0.0035396839680703323,0.0014240979564904617,0.011510448483356918,-0.015580747103471288,0.029945213335388493
-0.016057029118347832,-0.11588986233242347,0.13334315485236678,5.941195458333333,0.269682875,-2.2473572916666664,-0.00254791662408616,0.021176338145308345,0.07715271885373332,-0.026003945863295932,0.1427933281283871,0.06884419215233199,0.0032430001878799037,0.0009220184076073074,-6.455039290177815e-05,0.0643515458231257,0.04600775607742581,-0.010839815693536616
-0.02234021442552742,-0.11728612573401893,0.13334315485236678,5.8104401249999995,0.17978858333333333,-2.231012875,-0.00254791662408616,0.021176338145308345,0.07715271885373332,-0.026003945863295932,0.1427933281283871,0.06884419215233199,-0.0010944084724531394,0.005113361432816763,-0.002039714735255231,-0.009069547942808473,0.02938980417983414,-0.010945582741993304
-0.02024581932313422,-0.12775810124598494,0.13683381335635544,5.826784541666666,0.122583125,-2.214668458333333,-0.00254791662408616,0.021176338145308345,0.07715271885373332,-0.026003945863295932,0.1427933281283871,0.06884419215233199,0.0005301531437250062,0.004022151957648179,0.004309477284177872,-0.005079716583239141,0.05421715908145575,0.013342909855652466
-0.021642082724729686,-0.13543754995475996,0.12845623294678266,5.834956749999999,0.016344416666666667,-2.2473572916666664,-0.00254791662408616,0.021176338145308345,0.07715271885373332,-0.026003945863295932,0.1427933281283871,0.06884419215233199,-0.001185195546927839,0.0028993904838181994,0.0035138228048156982,-0.062270770544190106,0.03764043761056007,0.029643095117489165
-0.01884955592153876,-0.14172073526193954,0.12147491593880534,5.957539875,-0.057205458333333334,-2.3127349583333334,-0.00254791662408616,0.021176338145308345,0.07715271885373332,-0.026003945863295932,0.1427933281283871,0.06884419215233199,-0.0028079077301612445,0.0011052499202007084,0.00033720259224522827,-0.058397840436755506,0.037855665246491456,0.033445805273166165
-0.013264502315156905,-0.14381513036433274,0.12077678423800758,6.071950791666666,-0.13075533333333333,-2.3862848333333333,-0.00254791662408616,0.021176338145308345,0.07715271885373332,-0.026003945863295932,0.1427933281283871,0.06884419215233199,-0.004825253974177008,-0.0002368844654388791,-0.00217294147806312,-0.07078451104064923,0.033607403536138065,0.02129537265392563
-0.003490658503988659,-0.14381513036433274,0.124965574442794,6.210878333333333,-0.196133,-2.435318083333333,-0.00254791662408616,0.021176338145308345,0.07715271885373332,-0.026003945863295932,0.1427933281283871,0.06884419215233199,-0.002969765200829846,0.0023026303307789155,-0.0009196167796007086,-0.013379338562021247,0.041795411711271414,-0.0032160847024853586
0.0020943951023931952,-0.14800392056911915,0.1270599695451872,6.235394958333333,-0.2778550833333333,-2.435318083333333,-0.00254791662408616,0.021176338145308345,0.07715271885373332,-0.026003945863295932,0.1427933281283871,0.06884419215233199,-0.00915375602517248,0.006124626764105452,-0.006269562294581447,-0.07895732762088913,0.02111434536037735,0.008634530150280532
0.020943951023931952,-0.1605702911834783,0.13962634015954636,6.390666916666666,-0.318716125,-2.459834708333333,-0.00254791662408616,0.021176338145308345,0.07715271885373332,-0.026003945863295932,0.1427933281283871,0.06884419215233199,-0.008814983627909964,0.0004744434407671958,-0.005176116249852406,-0.09540689797516783,0.024802255928956927,0.029037076193109
0.03839724354387525,-0.16126842288427606,0.15009831567151233,6.578627708333332,-0.367749375,-2.5252123749999997,-0.00254791662408616,0.021176338145308345,0.07715271885373332,-0.026003945863295932,0.1427933281283871,0.06884419215233199,-0.004984650507948595,0.005878903957186436,-0.004208977628661117,-0.10749750497492064,-0.024364743984203078,0.012654041599421881
0.04817108735504349,-0.1731366617978375,0.15847589608108512,6.791105125,-0.318716125,-2.557901208333333,-0.00254791662408616,0.021176338145308345,0.07715271885373332,-0.026003945863295932,0.1427933281283871,0.06884419215233199,-0.005950300959826652,0.0012985094164181163,-0.004141194339214453,-0.06276435442142168,0.007936890638129074,-0.008079124154889492
0.060039326268604934,-0.1759291886010284,0.1668534764906579,6.913688249999999,-0.3350605416666666,-2.549729,-0.00254791662408616,0.021176338145308345,0.07715271885373332,-0.026003945863295932,0.1427933281283871,0.06884419215233199,-0.005969597955075981,0.004654469981691021,-0.005545854682782401,-0.009735230390588115,-0.0005703756548644895,-0.03283145334639679
0.07190756518216637,-0.1850049007113989,0.1780235837034216,6.9300326666666665,-0.3350605416666666,-2.4925235416666665,-0.00254791662408616,0.021176338145308345,0.07715271885373332,-0.026003945863295932,0.1427933281283871,0.06884419215233199,-0.0014221461081059465,0.0035017763428033606,-0.0016903413579663954,-0.09977972522123094,-0.041492207173582624,0.016109838893427562
0.0747000919853573,-0.19198621771937624,0.18151424220741028,7.126165666666666,-0.2533384583333333,-2.5333845833333335,-0.00254791662408616,0.021176338145308345,0.07715271885373332,-0.026003945863295932,0.1427933281283871,0.06884419215233199,-0.002450018260032062,0.0033013979641501098,-0.003093641123541021,0.006666410824325521,-0.02944556768797423,0.02419620993881366
0.08028514559173915,-0.19896753472735357,0.18779742751458986,7.1098212499999995,-0.196133,-2.5905900416666663,-0.00254791662408616,0.021176338145308345,0.07715271885373332,-0.026003945863295932,0.1427933281283871,0.06884419215233199,0.002825634273418133,-0.003957076201386439,-0.0020360104062790525,-0.050737104239343064,-0.04578222444313844,0.03632690245337396
0.0747000919853573,-0.19058995431778078,0.19198621771937624,7.207887749999999,-0.10623870833333333,-2.672312125,-0.00254791662408616,0.021176338145308345,0.07715271885373332,-0.026003945863295932,0.1427933281283871,0.06884419215233199,0.0021776286746712863,0.0002901059645598547,-0.002902795498283613,0.1250595526728742,0.03575573463765273,-0.01664744936984849
0.07051130178057091,-0.19198621771937624,0.19757127132575814,6.954549291666666,-0.17978858333333333,-2.6477955,-0.00254791662408616,0.021176338145308345,0.07715271885373332,-0.026003945863295932,0.1427933281283871,0.06884419215233199,0.0009590065016081995,0.0037874351701689675,0.003916437463238557,0.026675130971325033,0.027844748700673806,-0.016477595075663532
0.06841690667817772,-0.19896753472735357,0.18989182261698306,6.897343833333333,-0.23699404166666665,-2.623278875,-0.00254791662408616,0.021176338145308345,0.07715271885373332,-0.026003945863295932,0.1427933281283871,0.06884419215233199,0.0021827613900177894,0.0064283353727180815,0.0031031202657867685,0.08013558641026976,0.0239566938452502,-0.024941886628317214
0.0635299847725936,-0.21223203704251048,0.18360863730980345,6.733899666666666,-0.2860272916666666,-2.582417833333333,-0.00254791662408616,0.021176338145308345,0.07715271885373332,-0.026003945863295932,0.1427933281283871,0.06884419215233199,0.0002947375364756094,0.008380507165920857,0.0018672873426064478,-0.06712016489677736,-0.041605663844651364,0.031957048038168394
0.0635299847725936,-0.228987197861656,0.18011797880581482,6.864654999999999,-0.20430520833333332,-2.655967708333333,-0.00254791662408616,0.021176338145308345,0.07715271885373332,-0.026003945863295932,0.1427933281283871,0.06884419215233199,0.0008737553464441856,0.007052952706873477,-0.0005789778128830429,0.0019966797858822836,-0.0006011777003602898,0.01966380159329844
0.0614355896702004,-0.24294983187761068,0.18081611050661253,6.856482791666667,-0.20430520833333332,-2.705000958333333,-0.00254791662408616,0.021176338145308345,0.07715271885373332,-0.026003945863295932,0.1427933281283871,0.06884419215233199,0.0005705669356571155,0.006054758179759513,1.8959658641081998e-05,-0.16554084830875418,-0.029190818528812626,-0.0014516980980555198
0.06073745796940267,-0.2548180707911721,0.18151424220741028,7.183371125,-0.14709974999999997,-2.7131731666666665,-0.00254791662408616,0.021176338145308345,0.07715271885373332,-0.026003945863295932,0.1427933281283871,0.06884419215233199,-0.00011819158137316464,0.0070558672890416166,-0.0023525514684898208,-0.055336094387102276,0.007514325182761865,0.014707951390750646
0.06073745796940267,-0.2694788365079245,0.18570303241219666,7.289609833333333,-0.16344416666666667,-2.754034208333333,-0.00254791662408616,0.021176338145308345,0.07715271885373332,-0.026003945863295932,0.1427933281283871,0.06884419215233199,0.00033672254365830194,0.0030594007350806486,-0.0010705979539711776,-0.14932440311575806,-0.045866623552181365,-0.014370438290566967
0.060039326268604934,-0.2757620218151041,0.1884955592153876,7.583809333333333,-0.07354987499999999,-2.7376897916666665,-0.00254791662408616,0.021176338145308345,0.07715271885373332,-0.026003945863295932,0.1427933281283871,0.06884419215233199,-0.0006322038604615225,0.005835551189856318,-0.00339197032317941,-0.07991879016202122,-0.025718647187509987,-0.010497780130890652
0.0614355896702004,-0.2869321290278678,0.1954768762233649,7.7390812916666665,-0.024516625,-2.729517583333333,-0.00254791662408616,0.021176338145308345,0.07715271885373332,-0.026003945863295932,0.1427933281283871,0.06884419215233199,-0.004407881638571265,0.0025803909089629324,-0.0017520497671554582,-0.20665736391835846,-0.058418197210246686,0.05030723834624482
0.07051130178057091,-0.29251718263424964,0.1982694030265558,8.147691708333333,0.08989429166666667,-2.8439284999999996,-0.00254791662408616,0.021176338145308345,0.07715271885373332,-0.026003945863295932,0.1427933281283871,0.06884419215233199,-0.0002120425424470852,5.036737444110859e-05,-0.004004237772889923,-0.018694065735193756,-0.05059064498419218,0.037888649891675355
0.07051130178057091,-0.29251718263424964,0.20664698343612864,8.180380541666665,0.18796079166666665,-2.9338227916666666,-0.00254791662408616,0.021176338145308345,0.07715271885373332,-0.026003945863295932,0.1427933281283871,0.06884419215233199,0.004406803063814829,0.0024465177485828186,-0.00011059332949808737,-0.14562987619177617,-0.06692865374909307,0.08654441851365272
0.0614355896702004,-0.29740410453983374,0.20664698343612864,8.466407833333333,0.318716125,-3.1217835833333334,-0.00254791662408616,0.021176338145308345,0.07715271885373332,-0.026003945863295932,0.1427933281283871,0.06884419215233199,0.005430456076245481,-0.0003660767215072414,0.0016447377150825126,0.04213821957715633,0.022902784430020993,0.029574191152064753
0.050963614158234416,-0.296705972839036,0.20385445663293766,8.376513541666666,0.269682875,-3.195333458333333,-0.00254791662408616,0.021176338145308345,0.07715271885373332,-0.026003945863295932,0.1427933281283871,0.06884419215233199,0.008923061494783868,0.00417016125250475,0.00257756832607243,-0.03537093506532107,0.019167564339306883,0.03355806863998469
0.033510321638291124,-0.3050835532486088,0.1982694030265558,8.441891208333333,0.22882183333333334,-3.2770555416666665,-0.00254791662408616,0.021176338145308345,0.07715271885373332,-0.026003945863295932,0.1427933281283871,0.06884419215233199,0.008990264873713122,0.005090191815868447,0.001880069469634981,0.09931360312461296,0.039790802048395434,0.029426164289948813
0.0153588974175501,-0.31555552876057474,0.19477874452256716,8.237585999999999,0.14709974999999997,-3.3506054166666663,-0.00254791662408616,0.021176338145308345,0.07715271885373332,-0.026003945863295932,0.1427933281283871,0.06884419215233199,0.0029743612339008805,0.007472158168638864,0.002786643190242994,-0.015495219805461709,0.052244944727667275,-0.007606869327459247
0.009075712110370514,-0.3302162944773272,0.18919369091618532,8.262102624999999,0.04086104166666667,-3.3506054166666663,-0.00254791662408616,0.021176338145308345,0.07715271885373332,-0.026003945863295932,0.1427933281283871,0.06884419215233199,0.004073485182474953,0.008103066318834019,0.005464892476625339,0.04174821965910554,0.056615091070349774,-0.0038692254965786437
0.0013962634015954637,-0.346273323595675,0.1780235837034216,8.172208333333334,-0.07354987499999999,-3.358777625,-0.00254791662408616,0.021176338145308345,0.07715271885373332,-0.026003945863295932,0.1427933281283871,0.06884419215233199,0.004523545801593793,0.007472265112137196,0.005060477173367315,-0.06873379363956736,0.003709160488217544,0.020324302623866624
-0.00767944870877505,-0.36163222101322506,0.16824973989225336,8.302963666666667,-0.08172208333333333,-3.415983083333333,-0.00254791662408616,0.021176338145308345,0.07715271885373332,-0.026003945863295932,0.1427933281283871,0.06884419215233199,0.0028389593842503896,0.0016530796975916446,0.006361313279735676,0.029055136967846642,0.028440574665690492,-0.028889666071790044
-0.013264502315156905,-0.3651228795172137,0.1556833692778942,8.237585999999999,-0.13892754166666665,-3.3751220416666667,-0.00254791662408616,0.021176338145308345,0.07715271885373332,-0.026003945863295932,0.1427933281283871,0.06884419215233199,-0.0006241874962034877,0.0070445596005307455,0.0016114084099365135,-0.028043288921752414,0.03692815857128573,-0.012915099281381596
-0.011868238913561441,-0.37908551353316833,0.15219271077390556,8.28661925,-0.21247741666666667,-3.366949833333333,-0.00254791662408616,0.021176338145308345,0.07715271885373332,-0.026003945863295932,0.1427933281283871,0.06884419215233199,0.0009515087421756017,0.0020657837767452864,0.00019975202445995062,-0.007608977583320568,0.024770695993449724,-0.02920925688506582
-0.013962634015954637,-0.3832743037379548,0.15219271077390556,8.294791458333332,-0.26151066666666667,-3.3260887916666664,-0.00254791662408616,0.021176338145308345,0.07715271885373332,-0.026003945863295932,0.1427933281283871,0.06884419215233199,-0.0023191492744662604,0.006348856572518415,-0.0022540894561207505,-0.048530042622042927,0.004173181955253926,-0.041724661906104334
-0.009075712110370514,-0.39584067435231396,0.15638150097869194,8.38468575,-0.269682875,-3.260711125,-0.00254791662408616,0.021176338145308345,0.07715271885373332,-0.026003945863295932,0.1427933281283871,0.06884419215233199,-0.0037893564738519245,0.002911706141079801,-0.0007684209039674798,1.0648066635875695,-0.6365914626769129,-1.5357395682235166
-0.0013962634015954637,-0.3993313328563026,0.15987215948268058,8.490924458333334,-0.2533384583333333,-3.2443667083333327,-0.00254791662408616,0.021176338145308345,0.07715271885373332,-0.026003945863295932,0.1427933281283871,0.06884419215233199,-0.0014926755523675045,0.006012006836661642,-0.004073585323463349,-0.073206172631897,-0.04104697254184872,0.014576037866605468
0.0013962634015954637,-0.41119957176986405,0.16824973989225336,8.629852,-0.17161637500000002,-3.293399958333333,-0.00254791662408616,0.021176338145308345,0.07715271885373332,-0.026003945863295932,0.1427933281283871,0.06884419215233199,-0.0025797323019864727,0.0022888219159386022,-0.002930239664101296,-0.024159870942509206,-0.037331546375763726,0.018577762586603444
0.006283185307179587,-0.4153883619746504,0.17383479349863523,8.670713041666666,-0.0980665,-3.3506054166666663,-0.00254791662408616,0.021176338145308345,0.07715271885373332,-0.026003945863295932,0.1427933281283871,0.06884419215233199,0.0015763761291936148,0.004701171220077832,-0.004578414672663356,-0.08164420528765111,-0.025218620812819476,0.026463399418947108
0.003490658503988659,-0.42516220578581865,0.18291050560900574,8.825985,-0.04903325,-3.4241552916666667,-0.00254791662408616,0.021176338145308345,0.07715271885373332,-0.026003945863295932,0.1427933281283871,0.06884419215233199,0.003013158697548181,-0.0010312099920364453,-0.004107732648410719,-0.04513511012523417,-0.025230687900229743,0.05886285531204267
-0.0020943951023931952,-0.4230678106834254,0.19128808601857852,8.907707083333333,0.0,-3.563082833333333,-0.00254791662408616,0.021176338145308345,0.07715271885373332,-0.026003945863295932,0.1427933281283871,0.06884419215233199,0.0017219521483942545,0.0040768787267445985,-0.008343689209973349,-0.03292744296816733,0.043832657854149686,0.0465446926481721
-0.006283185307179587,-0.4314453910929983,0.20804324683772407,8.964912541666667,-0.08989429166666667,-3.67749375,-0.00254791662408616,0.021176338145308345,0.07715271885373332,-0.026003945863295932,0.1427933281283871,0.06884419215233199,0.0026392853702546714,-0.0005401763560193959,0.0004861915976887557,-0.03724640174987935,0.01519860910293047,0.03832259896930909
-0.01117010721276371,-0.4300491276914028,0.20664698343612864,9.030290208333332,-0.122583125,-3.77556025,-0.00254791662408616,0.021176338145308345,0.07715271885373332,-0.026003945863295932,0.1427933281283871,0.06884419215233199,0.0011087614221073985,0.0023298629444685514,-0.001045143220600965,0.015899068677606196,0.04367073760487061,0.025964886820120388
-0.013264502315156905,-0.43493604959698695,0.20874137853852182,8.989429166666666,-0.21247741666666667,-3.8491101249999997,-0.00254791662408616,0.021176338145308345,0.07715271885373332,-0.026003945863295932,0.1427933281283871,0.06884419215233199,0.0003635854847630866,0.0005184111071071809,0.0021719188560751362,-0.04981687618963247,-0.033728143491285015,0.06682974111387527
-0.013962634015954637,-0.4363323129985824,0.20525072003453312,9.079323458333333,-0.14709974999999997,-4.004382083333333,-0.00254791662408616,0.021176338145308345,0.07715271885373332,-0.026003945863295932,0.1427933281283871,0.06884419215233199,-0.00016010288872674993,-0.0005188241904695842,0.0021933996243926816,0.056370883184150934,0.019341978769106705,-0.006747698781586672
-0.013264502315156905,-0.43493604959698695,0.20036379812894903,8.956740333333332,-0.18796079166666665,-4.0125542916666666,-0.00254791662408616,0.021176338145308345,0.07715271885373332,-0.026003945863295932,0.1427933281283871,0.06884419215233199,0.0016562842312521518,0.0026114497552773537,0.006425805446889651,-0.04973969192002333,-0.013236877962658732,0.029893400246622834
-0.017453292519943295,-0.439822971502571,0.18779742751458986,9.046634625,-0.16344416666666667,-4.094276375,-0.00254791662408616,0.021176338145308345,0.07715271885373332,-0.026003945863295932,0.1427933281283871,0.06884419215233199,0.0033440410802148064,0.0006419493633482748,0.0048767468302687,0.0153543868927624,-0.004540358900851802,0.005720423613594973
-0.023736477827122883,-0.44121923490416654,0.1780235837034216,9.005773583333333,-0.15527195833333335,-4.126965208333333,-0.00254791662408616,0.021176338145308345,0.07715271885373332,-0.026003945863295932,0.1427933281283871,0.06884419215233199,0.005144910459464436,0.0008075023607185351,0.008379870024050846,-0.05404791124089121,0.007967113251435457,0.001240229423039063
-0.03420845333908886,-0.44331363000655966,0.16126842288427606,9.103840083333333,-0.17161637500000002,-4.151481833333333,-0.00254791662408616,0.021176338145308345,0.07715271885373332,-0.026003945863295932,0.1427933281283871,0.06884419215233199,0.004136571700486366,-0.0011065233121043277,0.006122339606393676,0.056302922380849864,0.020718418908474243,-0.04359102549340167
-0.041887902047863905,-0.44121923490416654,0.14870205226991687,8.981256958333333,-0.21247741666666667,-4.086104166666667,-0.00254791662408616,0.021176338145308345,0.07715271885373332,-0.026003945863295932,0.1427933281283871,0.06884419215233199,0.0012925541392041513,0.0006772747995003192,0.006008318568455026,-0.0742966582251951,-0.007620769306367191,-0.031495834954232735
-0.04468042885105484,-0.4419173666049642,0.13683381335635544,9.1201845,-0.196133,-4.045243125,-0.00254791662408616,0.021176338145308345,0.07715271885373332,-0.026003945863295932,0.1427933281283871,0.06884419215233199,-0.0012928442836774101,0.0006479945589734291,1.835290403855883e-05,0.04011530045368949,0.004701552700859086,-0.06815139692467363
-0.041887902047863905,-0.44331363000655966,0.13683381335635544,9.030290208333332,-0.20430520833333332,-3.930832208333333,-0.00254791662408616,0.021176338145308345,0.07715271885373332,-0.026003945863295932,0.1427933281283871,0.06884419215233199,-0.001252451787146999,0.00024456671433467506,-0.005108755232230969,-0.0700410539638113,-0.01579038735493649,-0.03549984295164018
-0.039095375244672985,-0.44401176170735746,0.14730578886832138,9.161045541666667,-0.17161637500000002,-3.881798958333333,-0.00254791662408616,0.021176338145308345,0.07715271885373332,-0.026003945863295932,0.1427933281283871,0.06884419215233199,-0.0006184456348418297,0.001742337833261026,-0.005312263819553653,0.007616998331216167,0.05343437193932596,-0.035572453280314144
-0.03839724354387525,-0.4475024202113461,0.15777776438028737,9.136528916666666,-0.2778550833333333,-3.832765708333333,-0.00254791662408616,0.021176338145308345,0.07715271885373332,-0.026003945863295932,0.1427933281283871,0.06884419215233199,-0.0051439767730061,0.004948288755846356,-0.004926285975875583,-0.11118975697551134,0.03255141689379707,-0.031870915262810065
-0.027925268031909273,-0.457974395723312,0.16824973989225336,9.349006333333334,-0.34323275000000003,-3.7919046666666665,-0.00254791662408616,0.021176338145308345,0.07715271885373332,-0.026003945863295932,0.1427933281283871,0.06884419215233199,-0.008389603313614396,-0.0011144950761194173,-0.007017989893232397,-0.017012825728341233,0.048685042002644376,-0.03615261090929873
-0.01117010721276371,-0.4551818689201211,0.18151424220741028,9.373522958333332,-0.44129925,-3.742871416666666,-0.00254791662408616,0.021176338145308345,0.07715271885373332,-0.026003945863295932,0.1427933281283871,0.06884419215233199,-0.007000361854679825,0.0016744673996392549,-0.005003978562654475,-0.09065324961374989,-0.0011445396188118188,0.0005058863495250197
0.0027925268031909274,-0.45867252742410985,0.19198621771937624,9.545139333333333,-0.44129925,-3.7673880416666665,-0.00254791662408616,0.021176338145308345,0.07715271885373332,-0.026003945863295932,0.1427933281283871,0.06884419215233199,-0.008803290565191982,-0.002183223765811882,-0.006829413177398536,-0.021261523190601525,-0.042234501030342826,0.02096808199644677
0.02024581932313422,-0.4544837372193234,0.2059488517353309,9.577828166666666,-0.35957716666666667,-3.832765708333333,-0.00254791662408616,0.021176338145308345,0.07715271885373332,-0.026003945863295932,0.1427933281283871,0.06884419215233199,-0.0016419919873016337,-0.0004971278487912991,-0.002948719729800018,-0.07846004340842955,-0.08762953055340944,0.07006776392469781
0.023736477827122883,-0.45308747381772796,0.2115339053417127,9.724927916666667,-0.18796079166666665,-3.9962098749999995,-0.00254791662408616,0.021176338145308345,0.07715271885373332,-0.026003945863295932,0.1427933281283871,0.06884419215233199,0.0005291408118906241,-0.0047123751554964954,0.00017733954275497997,0.056002890626351665,-0.0386219227931845,0.0416294920208507
0.023038346126325153,-0.44401176170735746,0.2115339053417127,9.602344791666665,-0.11441091666666667,-4.1024485833333335,-0.00254791662408616,0.021176338145308345,0.07715271885373332,-0.026003945863295932,0.1427933281283871,0.06884419215233199,0.002845043301186907,-0.0009263232002433363,0.002380439699268772,-0.03364541409061666,-0.030452624919755242,0.06615100215036991
0.016755160819145562,-0.4419173666049642,0.20664698343612864,9.659550249999999,-0.057205458333333334,-4.257720541666666,-0.00254791662408616,0.021176338145308345,0.07715271885373332,-0.026003945863295932,0.1427933281283871,0.06884419215233199,0.002259446378550121,0.0017215168017376745,0.003119670137909033,0.06820276738930625,0.018693511885160982,0.05828337678850573
0.012566370614359173,-0.4454080251089529,0.20036379812894903,9.5124505,-0.0980665,-4.396648083333333,-0.00254791662408616,0.021176338145308345,0.07715271885373332,-0.026003945863295932,0.1427933281283871,0.06884419215233199,0.002534597042568655,0.0037249851220362384,0.002065013721721343,-0.009667247863177637,0.03956698915070758,0.045853479253797236
0.00767944870877505,-0.45308747381772796,0.19617500792416265,9.520622708333333,-0.17978858333333333,-4.511059,-0.00254791662408616,0.021176338145308345,0.07715271885373332,-0.026003945863295932,0.1427933281283871,0.06884419215233199,0.0003547345842829661,-0.0011175061514308061,-0.0001771534664659447,-0.01800780361177306,0.035218255985308276,0.04174115306094398
0.006981317007977318,-0.4509930787153347,0.19687313962496036,9.545139333333333,-0.2533384583333333,-4.617297708333333,-0.00254791662408616,0.021176338145308345,0.07715271885373332,-0.026003945863295932,0.1427933281283871,0.06884419215233199,0.0002523954590032682,0.002043856118141256,0.002913097272264922,-0.0508553167459396,0.03558027961249516,0.004803924138356189
0.006283185307179587,-0.4551818689201211,0.19058995431778078,9.635033625,-0.32688833333333334,-4.649986541666666,-0.00254791662408616,0.021176338145308345,0.07715271885373332,-0.026003945863295932,0.1427933281283871,0.06884419215233199,-0.005688369202699063,-0.001852769347611864,-0.00017496873388515098,-0.054987678814913295,0.05185267273517665,0.03327395505909666
0.017453292519943295,-0.45169121041613247,0.19128808601857852,9.733100125,-0.43312704166666666,-4.739880833333333,-0.00254791662408616,0.021176338145308345,0.07715271885373332,-0.026003945863295932,0.1427933281283871,0.06884419215233199,-0.0059072364354250855,-0.0009080372799905291,-0.004219937016738422,-0.07538645023787631,0.031063660230629075,-0.023839073971874538
0.029321531433504733,-0.44959681531373935,0.1996656664281513,9.872027666666666,-0.4985047083333333,-4.715364208333333,-0.00254791662408616,0.021176338145308345,0.07715271885373332,-0.026003945863295932,0.1427933281283871,0.06884419215233199,-0.005759112404377723,-0.004324972893560822,-0.003938055988821586,-0.05896450864384922,0.018347365501020917,-0.011680375192325895
0.041189770347066175,-0.44121923490416654,0.20734511513692636,9.978266375,-0.53936575,-4.715364208333333,-0.00254791662408616,0.021176338145308345,0.07715271885373332,-0.026003945863295932,0.1427933281283871,0.06884419215233199,-0.007557093475804724,-0.003044797413834645,-0.004764946445648881,-0.05891240149366332,0.017962398039054337,-0.032058986786109155
0.056548667764616284,-0.43493604959698695,0.21711895894809458,10.084505083333333,-0.5802267916666666,-4.674503166666667,-0.00254791662408616,0.021176338145308345,0.07715271885373332,-0.026003945863295932,0.1427933281283871,0.06884419215233199,-0.006602117998818188,-0.007084242827621204,0.0005169371078159201,-0.10770594607467163,0.030035376272470136,-0.035748102727688295
0.06911503837897544,-0.4209734155810323,0.21642082724729686,10.288810291666666,-0.6456044583333332,-4.625469916666667,-0.00254791662408616,0.021176338145308345,0.07715271885373332,-0.026003945863295932,0.1427933281283871,0.06884419215233199,-0.006553610880946415,-0.003917352895461241,-0.002520396767212728,-0.042306537206824917,-0.027556092835639208,-0.03584334317253301
0.08307767239493008,-0.4132939668722573,0.22130774915288098,10.362360166666665,-0.5965712083333333,-4.576436666666666,-0.00254791662408616,0.021176338145308345,0.07715271885373332,-0.026003945863295932,0.1427933281283871,0.06884419215233199,-0.007702394882253779,-0.008523326903634077,0.0021765639035589293,-0.046023776249844,-0.09318922848108126,-0.002757774886962931
0.09843656981248018,-0.39584067435231396,0.21711895894809458,10.44408225,-0.416782625,-4.592781083333333,-0.00254791662408616,0.021176338145308345,0.07715271885373332,-0.026003945863295932,0.1427933281283871,0.06884419215233199,-0.005345868441693172,-0.0037809374618957502,0.00044786827804732597,0.04392558433868035,-0.048120077570561595,-0.0391464957651047
0.10890854532444616,-0.38816122564353883,0.21642082724729686,10.34601575,-0.32688833333333334,-4.535575625,-0.00254791662408616,0.021176338145308345,0.07715271885373332,-0.026003945863295932,0.1427933281283871,0.06884419215233199,0.0015945196921881516,-0.0021610354976536175,0.008932781674018352,0.06454104239048669,-0.0316059904000111,-0.0468746963806956
0.1054178868204575,-0.3839724354387525,0.1982694030265558,10.207088208333332,-0.269682875,-4.46202575,-0.00254791662408616,0.021176338145308345,0.07715271885373332,-0.026003945863295932,0.1427933281283871,0.06884419215233199,-0.00022513158284307575,0.0028757239522808637,0.0037383583172678567,0.04832171977080022,-0.010768448656462898,-0.01834974880206541
0.10611601852125524,-0.3895574890451343,0.19058995431778078,10.100849499999999,-0.2533384583333333,-4.445681333333333,-0.00254791662408616,0.021176338145308345,0.07715271885373332,-0.026003945863295932,0.1427933281283871,0.06884419215233199,0.004030849115996196,-0.003686207488864098,0.007736152413502586,-0.05392561372130646,-0.09222065012144268,0.10008624188529366
0.09843656981248018,-0.38257617203715705,0.17523105690023066,10.198916,-0.07354987499999999,-4.666330958333333,-0.00254791662408616,0.021176338145308345,0.07715271885373332,-0.026003945863295932,0.1427933281283871,0.06884419215233199,0.006674447440971717,-0.005026524678553902,0.007113276875963396,-0.0050869688321509895,-0.08369510817757188,0.10032584634276044
0.08447393579652555,-0.37210419652519106,0.16126842288427606,10.198916,0.08989429166666667,-4.886980583333333,-0.00254791662408616,0.021176338145308345,0.07715271885373332,-0.026003945863295932,0.1427933281283871,0.06884419215233199,0.013147603481065476,-0.00788798010249636,0.0094145829373331,-0.013123554270110546,-0.11993377699192083,0.08434039301573353
0.05864306286700947,-0.35674529910764097,0.1424188669627373,10.215260416666666,0.32688833333333334,-5.074941374999999,-0.00254791662408616,0.021176338145308345,0.07715271885373332,-0.026003945863295932,0.1427933281283871,0.06884419215233199,0.013545538913721128,-0.006430957983025642,0.005698513360348163,0.13393072970479908,0.007574458139500167,0.035745630741983794
0.031415926535897934,-0.34417892849328174,0.13124875974997358,9.937405333333334,0.3105439166666667,-5.164835666666666,-0.00254791662408616,0.021176338145308345,0.07715271885373332,-0.026003945863295932,0.1427933281283871,0.06884419215233199,0.01205784538762954,0.00034829835037468513,0.006100421132581693,0.03585602923144722,0.11846363944125256,0.060687450117420015
0.00767944870877505,-0.34487706019407954,0.11868238913561441,9.855683249999998,0.07354987499999999,-5.303763208333334,-0.00254791662408616,0.021176338145308345,0.07715271885373332,-0.026003945863295932,0.1427933281283871,0.06884419215233199,0.006830890707983422,0.0008665279167167537,0.004156597115562642,0.05637197696771269,0.12725023128311583,-0.008756719429900396
-0.006283185307179587,-0.346273323595675,0.11030480872604163,9.733100125,-0.17978858333333333,-5.303763208333334,-0.00254791662408616,0.021176338145308345,0.07715271885373332,-0.026003945863295932,0.1427933281283871,0.06884419215233199,0.0043401444180365375,0.001269909224151371,0.0010230114714698943,-0.03786320340363555,0.07030770709892388,0.019714849532759805
-0.014660765716752367,-0.3490658503988659,0.10890854532444616,9.798477791666667,-0.318716125,-5.360968666666666,-0.00254791662408616,0.021176338145308345,0.07715271885373332,-0.026003945863295932,0.1427933281283871,0.06884419215233199,-0.006662113473310937,-0.0009070995503733843,-0.004379337641258394,-0.017340375980732636,0.07842123280052118,-0.037487165926230435
-0.0013962634015954637,-0.34766958699727046,0.11728612573401893,9.822994416666667,-0.4739880833333333,-5.303763208333334,-0.00254791662408616,0.021176338145308345,0.07715271885373332,-0.026003945863295932,0.1427933281283871,0.06884419215233199,-0.005815097457805914,-0.0036324735097244282,-0.006485906969616278,-0.09898282051351182,-0.016023918749920655,0.0034614840334076685
0.009773843811168246,-0.3399901382884954,0.13055062804917586,10.010955208333332,-0.44129925,-5.328279833333333,-0.00254791662408616,0.021176338145308345,0.07715271885373332,-0.026003945863295932,0.1427933281283871,0.06884419215233199,-0.008040224254435622,-0.0062655444607526535,-0.00949023315470564,-0.009011793862750849,0.044697396018691334,-0.04536431293687568
0.02652900463031381,-0.3274237676741362,0.1494001839707146,10.019127416666667,-0.5311935416666667,-5.254729958333334,-0.00254791662408616,0.021176338145308345,0.07715271885373332,-0.026003945863295932,0.1427933281283871,0.06884419215233199,-0.005961797336678932,-0.008677932164358616,-0.005390035281318303,-0.08640329368595476,0.02774617464145302,-0.024644521283394033
0.03839724354387525,-0.30997047515419296,0.1605702911834783,10.182571583333333,-0.5883989999999999,-5.222041125,-0.00254791662408616,0.021176338145308345,0.07715271885373332,-0.026003945863295932,0.1427933281283871,0.06884419215233199,-0.00733606995929402,-0.009186443644918496,-0.004469775746234747,0.04860492636345393,0.06411014174328952,-0.07325488657322468
0.05305800926062762,-0.2918190509334519,0.16964600329384885,10.076332875,-0.7191543333333333,-5.0912857916666665,-0.00254791662408616,0.021176338145308345,0.07715271885373332,-0.026003945863295932,0.1427933281283871,0.06884419215233199,-0.010182537588632726,-0.006870951747763063,-0.0036194991118793924,-0.044928920664958884,0.022838027912075596,-0.05636240378291807
0.07330382858376185,-0.2778564169174973,0.17662732030182612,10.158054958333333,-0.7681875833333334,-4.993219291666667,-0.00254791662408616,0.021176338145308345,0.07715271885373332,-0.026003945863295932,0.1427933281283871,0.06884419215233199,-0.012614883284210607,-0.00819010318881932,7.767047564333858e-07,0.04511477031330485,0.026504210193019167,-0.027184633021634565
0.09843656981248018,-0.2617993877991494,0.17662732030182612,10.059988458333333,-0.8253930416666666,-4.95235825,-0.00254791662408616,0.021176338145308345,0.07715271885373332,-0.026003945863295932,0.1427933281283871,0.06884419215233199,-0.010054972790409525,-0.005549838016830096,-0.0006905085355673297,-0.012013367949936005,-0.05948109800528259,-0.006569985732719422
0.11868238913561441,-0.2506292805863857,0.1780235837034216,10.076332875,-0.7109821249999999,-4.95235825,-0.00254791662408616,0.021176338145308345,0.07715271885373332,-0.026003945863295932,0.1427933281283871,0.06884419215233199,-0.004787967835368224,-0.009716556179975085,0.00497126758140158,0.012788433764130733,-0.10863131142557729,0.03479983648945407
0.12775810124598494,-0.23108159296404923,0.16824973989225336,10.043644041666665,-0.4985047083333333,-5.034080333333333,-0.00254791662408616,0.021176338145308345,0.07715271885373332,-0.026003945863295932,0.1427933281283871,0.06884419215233199,-0.002942652082375176,-0.0048697295107532875,0.0033028031376486967,-0.007249899648317317,-0.12085712522460194,0.010715109254523925
0.1340412865531645,-0.22130774915288098,0.16196655458507375,10.051816249999998,-0.26151066666666667,-5.066769166666667,-0.00254791662408616,0.021176338145308345,0.07715271885373332,-0.026003945863295932,0.1427933281283871,0.06884419215233199,0.0014916434556745675,-0.010498404291690609,0.004641781702152688,0.05405777738616541,-0.051283173531007364,0.014990245009388108
0.13124875974997358,-0.20036379812894903,0.15219271077390556,9.937405333333334,-0.16344416666666667,-5.107630208333333,-0.00254791662408616,0.021176338145308345,0.07715271885373332,-0.026003945863295932,0.1427933281283871,0.06884419215233199,0.00451966817616065,-0.0034517368774800742,0.007605932980921513,-0.019518892853411234,-0.046696811838627186,0.03587816647273756
0.12217304763960307,-0.19408061282176942,0.13753194505715316,9.970094166666666,-0.07354987499999999,-5.189352291666666,-0.00254791662408616,0.021176338145308345,0.07715271885373332,-0.026003945863295932,0.1427933281283871,0.06884419215233199,0.006123673381342396,-0.008323826291883704,0.007113588715594833,0.013788358837713201,0.027116125030662033,-0.008806303720467269
0.11030480872604163,-0.17662732030182612,0.1228711793404008,9.937405333333334,-0.13075533333333333,-5.181180083333333,-0.00254791662408616,0.021176338145308345,0.07715271885373332,-0.026003945863295932,0.1427933281283871,0.06884419215233199,0.007656312485747028,-0.002253350755341889,0.011468004098328084,-0.0599845055753906,-0.021128347854830993,-0.00047332156226462604
0.09494591130849153,-0.17243853009703977,0.09983283321407566,10.051816249999998,-0.08989429166666667,-5.189352291666666,-0.00254791662408616,0.021176338145308345,0.07715271885373332,-0.026003945863295932,0.1427933281283871,0.06884419215233199,0.008305977452240666,-0.007402142453034027,0.010110759444881033,-0.05147321263786168,-0.01218787687520751,0.052907161577500354
0.07819075048934597,-0.15777776438028737,0.07958701389094143,10.149882749999998,-0.06537766666666667,-5.303763208333334,-0.00254791662408616,0.021176338145308345,0.07715271885373332,-0.026003945863295932,0.1427933281283871,0.06884419215233199,0.002768517601199323,-0.004013294550650018,0.007731521476039791,0.0016488646879316627,0.03327202655022271,0.00826152251061855
0.07260569688296412,-0.1494001839707146,0.06422811647339133,10.141710541666667,-0.13075533333333333,-5.328279833333333,-0.00254791662408616,0.021176338145308345,0.07715271885373332,-0.026003945863295932,0.1427933281283871,0.06884419215233199,0.006708633200059071,-0.006906060263298343,0.010867830485674173,-0.05134799174437331,0.02165573639643845,0.0247161281857421
0.059341194567807204,-0.1361356816555577,0.04258603374866164,10.239777041666667,-0.17161637500000002,-5.385485291666667,-0.00254791662408616,0.021176338145308345,0.07715271885373332,-0.026003945863295932,0.1427933281283871,0.06884419215233199,0.001505052704706952,-0.005755339569467835,0.0050465377450693355,-0.030787932048334295,0.04250090966424995,-0.003473226451930675
0.056548667764616284,-0.124965574442794,0.032812189937493394,10.2969825,-0.2533384583333333,-5.385485291666667,-0.00254791662408616,0.021176338145308345,0.07715271885373332,-0.026003945863295932,0.1427933281283871,0.06884419215233199,-0.00038873939226155194,-0.0026914009722935513,0.004633530904229295,-0.06316333295871202,0.05103878543245478,-0.027762120578536918
0.057246799465414,-0.11938052083641214,0.023736477827122883,10.419565624999999,-0.35140495833333335,-5.336452041666667,-0.00254791662408616,0.021176338145308345,0.07715271885373332,-0.026003945863295932,0.1427933281283871,0.06884419215233199,-0.0038770841860954544,-0.003720193973982862,-0.00036178672004143285,0.03908813152869747,0.11252313805441905,-0.027522160241456727
0.06492624817418906,-0.1117010721276371,0.024434609527920613,10.337843541666667,-0.5720545833333333,-5.287418791666666,-0.00254791662408616,0.021176338145308345,0.07715271885373332,-0.026003945863295932,0.1427933281283871,0.06884419215233199,-0.006981597276149662,-0.004949033080019018,-0.0002546502232285905,-0.04655645799337043,0.04278614780796624,-0.015122094415909181
0.07888888219014369,-0.10192722831646883,0.025132741228718346,10.427737833333332,-0.6537766666666667,-5.262902166666666,-0.00254791662408616,0.021176338145308345,0.07715271885373332,-0.026003945863295932,0.1427933281283871,0.06884419215233199,-0.006715527530381238,-0.004236550930185366,-0.004783752537599531,-0.0015987074990122035,0.01385818906969626,-0.002443927646242416
0.09215338450530061,-0.09354964790689606,0.03420845333908886,10.427737833333332,-0.6782932916666666,-5.262902166666666,-0.00254791662408616,0.021176338145308345,0.07715271885373332,-0.026003945863295932,0.1427933281283871,0.06884419215233199,-0.005403994948529078,-0.005578293905173522,-0.004090140137293254,-0.0749661496319124,-0.027391026813655687,0.005802408589277959
0.10332349171806432,-0.08237954069413235,0.04258603374866164,10.574837583333332,-0.6210878333333334,-5.279246583333333,-0.00254791662408616,0.021176338145308345,0.07715271885373332,-0.026003945863295932,0.1427933281283871,0.06884419215233199,-0.005146864201888141,-0.004483854819813056,-0.002693676788152075,0.006717609957320885,0.009238718278901076,-0.014157336766514579
0.11309733552923257,-0.07330382858376185,0.04817108735504349,10.558493166666667,-0.63743225,-5.254729958333334,-0.00254791662408616,0.021176338145308345,0.07715271885373332,-0.026003945863295932,0.1427933281283871,0.06884419215233199,-8.481476799953032e-05,-0.00452071200751644,0.005755703705692091,1.62775829688742,0.2339761507221271,0.5729835626242817
0.11588986233242347,-0.05794493116621174,0.039793506945470715,10.664731875,-0.5066769166666666,-5.360968666666666,-0.00254791662408616,0.021176338145308345,0.07715271885373332,-0.026003945863295932,0.1427933281283871,0.06884419215233199,0.003967711215512313,-0.005786510172040158,0.0009043913297280082,0.03591554707727468,-0.04781221772518817,-0.0020478386288668494
0.1075122819228507,-0.046076692252650306,0.03769911184307752,10.591182,-0.40861041666666664,-5.360968666666666,-0.00254791662408616,0.021176338145308345,0.07715271885373332,-0.026003945863295932,0.1427933281283871,0.06884419215233199,0.005276825096265593,-0.004477529286279887,0.008564329345670923,-0.053925857021207266,-0.06382940263354042,0.038895942273636595
0.09704030641088471,-0.03769911184307752,0.020943951023931952,10.697420708333333,-0.2778550833333333,-5.442690750000001,-0.00254791662408616,0.021176338145308345,0.07715271885373332,-0.026003945863295932,0.1427933281283871,0.06884419215233199,0.010998673180724722,-0.004907524141123197,0.003159619613196424,0.040257312252752656,0.002077254290799433,0.01042794608442098
0.0747000919853573,-0.027925268031909273,0.014660765716752367,10.615698625,-0.2778550833333333,-5.467207374999999,-0.00254791662408616,0.021176338145308345,0.07715271885373332,-0.026003945863295932,0.1427933281283871,0.06884419215233199,0.010481364458884099,-0.002741803842560128,0.007048965202760192,-0.01708691879181682,-0.02170354839850823,0.018870785405604655
0.05375614096142535,-0.02234021442552742,0.0006981317007977319,10.648387458333334,-0.22882183333333334,-5.508068416666666,-0.00254791662408616,0.021176338145308345,0.07715271885373332,-0.026003945863295932,0.1427933281283871,0.06884419215233199,0.008810436154546757,-0.004244409609426528,0.006918023676898888,0.032373296083270435,-0.008945396875266826,0.010713333615059346
0.03630284844148206,-0.013264502315156905,-0.013264502315156905,10.583009791666665,-0.20430520833333332,-5.532585041666667,-0.00254791662408616,0.021176338145308345,0.07715271885373332,-0.026003945863295932,0.1427933281283871,0.06884419215233199,0.008443340268989264,0.0005780558706680253,0.008114645062496347,-0.049569031696808125,0.01199386307299063,0.019138196618227212
0.019547687622336492,-0.014660765716752367,-0.029321531433504733,10.681076291666665,-0.220649625,-5.573446083333333,-0.00254791662408616,0.021176338145308345,0.07715271885373332,-0.026003945863295932,0.1427933281283871,0.06884419215233199,0.0073572682755522366,-0.004710908660496796,0.008179721574577897,-0.00843182112880888,0.025070587861296345,-0.02158686509578466
0.004886921905584123,-0.005585053606381855,-0.046076692252650306,10.697420708333333,-0.26151066666666667,-5.532585041666667,-0.00254791662408616,0.021176338145308345,0.07715271885373332,-0.026003945863295932,0.1427933281283871,0.06884419215233199,0.0067316688158392994,-0.0017047050084771467,0.007946471971546737,-0.11464895315106403,-0.01916482410932232,0.015262532986043994
-0.008377580409572781,-0.0020943951023931952,-0.06213372137099814,10.926242541666667,-0.21247741666666667,-5.565273875,-0.00254791662408616,0.021176338145308345,0.07715271885373332,-0.026003945863295932,0.1427933281283871,0.06884419215233199,0.005301202978163432,-0.0041381526054764545,0.007450433301187261,0.2936973742066588,0.23832319444245942,0.759520639845842
-0.01884955592153876,0.00767944870877505,-0.0767944870877505,10.852692666666666,-0.2860272916666666,-5.532585041666667,-0.00254791662408616,0.021176338145308345,0.07715271885373332,-0.026003945863295932,0.1427933281283871,0.06884419215233199,0.0025006650150716605,-0.001200063969721586,0.0054829548848154405,-0.05310075785245964,-0.005792561058735305,-0.008693695330826718
-0.023736477827122883,0.009773843811168246,-0.08726646259971647,10.958931374999999,-0.26151066666666667,-5.516240625,-0.00254791662408616,0.021176338145308345,0.07715271885373332,-0.026003945863295932,0.1427933281283871,0.06884419215233199,0.0018800257325552927,-0.00595112433990239,0.0016473083472113034,0.04490521127998261,0.03107364744023109,-0.016903688081705517
-0.02722713633111154,0.021642082724729686,-0.09075712110370514,10.869037083333334,-0.3105439166666667,-5.483551791666667,-0.00254791662408616,0.021176338145308345,0.07715271885373332,-0.026003945863295932,0.1427933281283871,0.06884419215233199,-0.00178243845927333,-0.00016486181433171649,0.0004936246449119509,-0.01599132035417427,0.043316093737293185,0.007626438428957371
-0.023736477827122883,0.02234021442552742,-0.09145525280450287,10.901725916666665,-0.3840937916666667,-5.4998962083333325,-0.00254791662408616,0.021176338145308345,0.07715271885373332,-0.026003945863295932,0.1427933281283871,0.06884419215233199,-0.0008053492248972638,-0.005094184621106853,0.0015406006282007822,0.03299666340972833,0.023097522501112643,-0.012537305352454065
-0.02234021442552742,0.032114058236695664,-0.09494591130849153,10.836348249999999,-0.416782625,-5.475379583333333,-0.00254791662408616,0.021176338145308345,0.07715271885373332,-0.026003945863295932,0.1427933281283871,0.06884419215233199,-0.004764078130401764,-0.002015619377212303,0.0009859003941781437,0.00048018381910238024,0.0065884079298768,-0.012220419926198853
-0.013264502315156905,0.03630284844148206,-0.09634217471008698,10.836348249999999,-0.416782625,-5.450862958333333,-0.00254791662408616,0.021176338145308345,0.07715271885373332,-0.026003945863295932,0.1427933281283871,0.06884419215233199,-0.0037222795234011586,-0.003041399195744514,0.0027870854925538657,0.02092639709385134,0.01887208497015034,0.01629139105981312
-0.004886921905584123,0.04258603374866164,-0.10192722831646883,10.795487208333332,-0.44129925,-5.483551791666667,-0.00254791662408616,0.021176338145308345,0.07715271885373332,-0.026003945863295932,0.1427933281283871,0.06884419215233199,-0.0034367285918050104,-6.494558731236695e-05,0.00020078289301915837,-0.007646361202738045,-0.013741997551734391,0.04107311761700156
0.0013962634015954637,0.04258603374866164,-0.10262536001726656,10.811831625,-0.4004382083333333,-5.565273875,-0.00254791662408616,0.021176338145308345,0.07715271885373332,-0.026003945863295932,0.1427933281283871,0.06884419215233199,-0.0014880149662041494,-0.0018594086075378216,0.0014657661726287204,0.008802953503779461,-0.005885878389978721,-0.020227505439431064
0.004886921905584123,0.046076692252650306,-0.1054178868204575,10.795487208333332,-0.3759215833333333,-5.524412833333333,-0.00254791662408616,0.021176338145308345,0.07715271885373332,-0.026003945863295932,0.1427933281283871,0.06884419215233199,-0.0007865885797747269,0.0037352058858580715,-0.0014919575242116523,-0.056791563540968405,-0.005592209005569686,0.0002473900863752425
0.006283185307179587,0.03839724354387525,-0.10262536001726656,10.909898125,-0.35140495833333335,-5.524412833333333,-0.00254791662408616,0.021176338145308345,0.07715271885373332,-0.026003945863295932,0.1427933281283871,0.06884419215233199,-0.00014006852403851823,-0.001143167105210983,0.0001833647750710469,-0.011771933157322324,-0.018102528084210905,0.012430809998048856
0.006283185307179587,0.041189770347066175,-0.10262536001726656,10.934414749999998,-0.3023717083333333,-5.548929458333332,-0.00254791662408616,0.021176338145308345,0.07715271885373332,-0.026003945863295932,0.1427933281283871,0.06884419215233199,-0.0021701437310206423,0.004399501150578893,-0.004210073627949574,0.16736920757149548,0.21773400271156546,0.9298560255635292
0.01117010721276371,0.03420845333908886,-0.0942477796076938,11.03248125,-0.24516625,-5.483551791666667,-0.00254791662408616,0.021176338145308345,0.07715271885373332,-0.026003945863295932,0.1427933281283871,0.06884419215233199,0.0022601711394755262,-0.0004898366363421909,-0.0015830873204911908,-0.060877045682596206,0.014511820880645558,0.02856373967466328
0.006981317007977318,0.03490658503988659,-0.09075712110370514,11.155064374999998,-0.26151066666666667,-5.5407572499999995,-0.00254791662408616,0.021176338145308345,0.07715271885373332,-0.026003945863295932,0.1427933281283871,0.06884419215233199,0.0007436970001166943,0.0018885764851821532,-0.0020364837603466285,-0.011906298402809733,0.03489741046573327,-0.012203327522920616
0.004886921905584123,0.031415926535897934,-0.08656833089891874,11.179580999999999,-0.318716125,-5.516240625,-0.00254791662408616,0.021176338145308345,0.07715271885373332,-0.026003945863295932,0.1427933281283871,0.06884419215233199,0.0018406415116076534,-0.0010335410312943744,-0.0006371144171325716,-0.08553911117000715,-0.010036124270701675,0.0038947093437573478
0.0013962634015954637,0.033510321638291124,-0.08517206749732328,11.351197375,-0.2860272916666666,-5.524412833333333,-0.00254791662408616,0.021176338145308345,0.07715271885373332,-0.026003945863295932,0.1427933281283871,0.06884419215233199,-0.0010407268494578242,0.00017485720538474984,-0.0013110180740891768,0.033062276104059075,0.006030514429615337,0.02046462342216357
0.003490658503988659,0.032812189937493394,-0.08237954069413235,11.285819708333333,-0.2860272916666666,-5.565273875,-0.00254791662408616,0.021176338145308345,0.07715271885373332,-0.026003945863295932,0.1427933281283871,0.06884419215233199,0.0003974899950561902,-0.002452695709244713,0.0028157708499355603,-0.03635392530308878,-0.018213347033790548,0.024460859645638593
0.0027925268031909274,0.03769911184307752,-0.08866272600131193,11.359369583333333,-0.23699404166666665,-5.614307125,-0.00254791662408616,0.021176338145308345,0.07715271885373332,-0.026003945863295932,0.1427933281283871,0.06884419215233199,0.0010632774873159119,-0.0024435777049639468,0.0007119066887823598,0.08208341668350748,0.01862579465508594,-0.008117452018827439
0.0006981317007977319,0.04258603374866164,-0.08936085770210968,11.195925416666665,-0.26151066666666667,-5.597962708333332,-0.00254791662408616,0.021176338145308345,0.07715271885373332,-0.026003945863295932,0.1427933281283871,0.06884419215233199,-0.0007249207899138576,-0.0019404601072403513,-0.00018034493404372177,0.008734770070025545,-0.010036934584641746,0.024874971453978458
0.0020943951023931952,0.04677482395344803,-0.08936085770210968,11.179580999999999,-0.22882183333333334,-5.646995958333333,-0.00254791662408616,0.021176338145308345,0.07715271885373332,-0.026003945863295932,0.1427933281283871,0.06884419215233199,-0.0012705771005320236,0.0034858998320885753,-0.0012893580322809177,0.08230432513463763,0.01853580815463833,-0.007958607998601694
0.004886921905584123,0.039793506945470715,-0.08656833089891874,11.016136833333332,-0.2533384583333333,-5.6306515416666665,-0.00254791662408616,0.021176338145308345,0.07715271885373332,-0.026003945863295932,0.1427933281283871,0.06884419215233199,4.458890887915507e-05,0.0029770752853405225,-0.0020764276501113476,-0.04459978608700348,-0.006299180508462646,0.02053042316135036
0.004886921905584123,0.033510321638291124,-0.08237954069413235,11.106031125,-0.22882183333333334,-5.6715125833333335,-0.00254791662408616,0.021176338145308345,0.07715271885373332,-0.026003945863295932,0.1427933281283871,0.06884419215233199,-0.00287668474031816,0.0033075530586126898,-0.002045851935005618,0.1585747331281165,0.22190561537034356,0.8859136857154556
0.010471975511965976,0.029321531433504733,-0.07819075048934597,11.03248125,-0.22882183333333334,-5.614307125,-0.00254791662408616,0.021176338145308345,0.07715271885373332,-0.026003945863295932,0.1427933281283871,0.06884419215233199,-0.0011072506011360157,-0.0007936748218238276,-0.0024952483918027303,-0.056936810901812254,-0.026867202823458773,0.012014297729197819
0.012566370614359173,0.031415926535897934,-0.07330382858376185,11.146892166666666,-0.16344416666666667,-5.638823749999999,-0.00254791662408616,0.021176338145308345,0.07715271885373332,-0.026003945863295932,0.1427933281283871,0.06884419215233199,-0.0021817065720166505,-0.0017691485381120388,-0.0035069460789443007,0.045269609767212476,0.017587224102775703,-0.04494086106500837
0.017453292519943295,0.03420845333908886,-0.06632251157578452,11.056997874999999,-0.18796079166666665,-5.548929458333332,-0.00254791662408616,0.021176338145308345,0.07715271885373332,-0.026003945863295932,0.1427933281283871,0.06884419215233199,-0.0006691651994662011,0.00042049164378567754,-0.0005078236977244366,-0.07331375162297865,-0.039380808485686244,-0.0040972302320274314
0.01884955592153876,0.033510321638291124,-0.06492624817418906,11.204097625,-0.0980665,-5.5407572499999995,-0.00254791662408616,0.021176338145308345,0.07715271885373332,-0.026003945863295932,0.1427933281283871,0.06884419215233199,-0.0012442323193041947,-0.0017662293081332125,-0.004171460974416161,0.04114955481824694,0.01743698926998787,-0.020515720221859293
0.020943951023931952,0.03700098014227979,-0.056548667764616284,11.122375541666667,-0.122583125,-5.4998962083333325,-0.00254791662408616,0.021176338145308345,0.07715271885373332,-0.026003945863295932,0.1427933281283871,0.06884419215233199,-0.0024356210210389477,-0.0009262065977653282,-0.003672305428251523,-0.09764672000346494,0.001009447948068622,0.02464708912581718
0.02583087292951608,0.039095375244672985,-0.04956735075663895,11.318508541666665,-0.11441091666666667,-5.548929458333332,-0.00254791662408616,0.021176338145308345,0.07715271885373332,-0.026003945863295932,0.1427933281283871,0.06884419215233199,-0.0013526114803344203,-0.000369991245690897,-0.005751942837728507,0.07388937119976312,0.045531359930337426,-0.003935083105272078
0.028623399732707,0.039793506945470715,-0.03769911184307752,11.171408791666666,-0.196133,-5.5407572499999995,-0.00254791662408616,0.021176338145308345,0.07715271885373332,-0.026003945863295932,0.1427933281283871,0.06884419215233199,-0.006307172898250878,0.0020777382588186054,-0.00257333512044216,-0.020028996114260865,0.020504027572149804,0.00011411791134705033
0.041189770347066175,0.03560471674068433,-0.032812189937493394,11.212269833333332,-0.22882183333333334,-5.5407572499999995,-0.00254791662408616,0.021176338145308345,0.07715271885373332,-0.026003945863295932,0.1427933281283871,0.06884419215233199,-0.0036439262648849994,-0.0008745649640586171,-0.001239586382336057,0.053447648760842695,0.024509984896168464,0.028480177165757483
0.048869219055841226,0.03700098014227979,-0.030019663134302467,11.106031125,-0.269682875,-5.597962708333332,-0.00254791662408616,0.021176338145308345,0.07715271885373332,-0.026003945863295932,0.1427933281283871,0.06884419215233199,-0.001006154218944441,0.0021385766543588615,0.00014065977449181628,-0.020183945719084734,-0.061432175884618814,0.028820418811242164
0.050963614158234416,0.032812189937493394,-0.0307177948351002,11.146892166666666,-0.13892754166666665,-5.655168166666666,-0.00254791662408616,0.021176338145308345,0.07715271885373332,-0.026003945863295932,0.1427933281283871,0.06884419215233199,0.0002909274641033603,-0.00011346975478300508,0.0005384505436437381,0.06573163569301647,-0.028785285919885367,0.012095560610708654
0.05026548245743669,0.032812189937493394,-0.031415926535897934,11.016136833333332,-0.07354987499999999,-5.679684791666666,-0.00254791662408616,0.021176338145308345,0.07715271885373332,-0.026003945863295932,0.1427933281283871,0.06884419215233199,-0.0009101655249746326,0.0021906584831511405,0.0021149043924754587,-0.020320769421998123,-0.012274182451268028,0.016291167359513352
0.05235987755982988,0.028623399732707,-0.03560471674068433,11.056997874999999,-0.04086104166666667,-5.712373625,-0.00254791662408616,0.021176338145308345,0.07715271885373332,-0.026003945863295932,0.1427933281283871,0.06884419215233199,0.00040806832414433164,0.0003887028285169855,0.0023180770514894668,0.06962412541326321,0.016350076859455172,-0.012454739905737021
0.050963614158234416,0.027925268031909273,-0.04049163864626844,10.918070333333333,-0.06537766666666667,-5.687856999999999,-0.00254791662408616,0.021176338145308345,0.07715271885373332,-0.026003945863295932,0.1427933281283871,0.06884419215233199,0.001263606584416412,0.002412587725176403,-3.70070468268976e-05,-0.003929601550800626,-0.0041707205890980995,-0.020636402579809504
0.048869219055841226,0.023038346126325153,-0.04049163864626844,10.926242541666667,-0.04903325,-5.646995958333333,-0.00254791662408616,0.021176338145308345,0.07715271885373332,-0.026003945863295932,0.1427933281283871,0.06884419215233199,0.00031517058687621514,-0.004467336380500702,-0.0009385922208735235,0.02471622861690744,0.03690909979852892,-0.02472829703235658
0.04817108735504349,0.032114058236695664,-0.03839724354387525,10.877209291666667,-0.11441091666666667,-5.597962708333332,-0.00254791662408616,0.021176338145308345,0.07715271885373332,-0.026003945863295932,0.1427933281283871,0.06884419215233199,-0.0007031860173675103,0.0008836218605833096,0.0006461255927761934,0.03291929430378421,0.00819543013456313,-0.01248483524562729
0.04956735075663895,0.030019663134302467,-0.039793506945470715,10.811831625,-0.122583125,-5.573446083333333,-0.00254791662408616,0.021176338145308345,0.07715271885373332,-0.026003945863295932,0.1427933281283871,0.06884419215233199,-0.00160029742035871,-0.005558137761240733,-0.0020582729400934097,0.03305959746256846,0.012330337857483576,-0.004011886845023361
0.05305800926062762,0.041189770347066175,-0.03490658503988659,10.746453958333333,-0.13892754166666665,-5.565273875,-0.00254791662408616,0.021176338145308345,0.07715271885373332,-0.026003945863295932,0.1427933281283871,0.06884419215233199,-0.002333807899063002,-0.002198613951067226,-0.004998349896694729,-0.0077795936579065725,0.01196925628913286,-0.012060267940171267
0.057246799465414,0.04537856055185257,-0.025132741228718346,10.762798375,-0.15527195833333335,-5.5407572499999995,-0.00254791662408616,0.021176338145308345,0.07715271885373332,-0.026003945863295932,0.1427933281283871,0.06884419215233199,-0.0017462756504582461,-0.003212368556423728,-0.0016628077713116566,0.012591401928010289,-0.0007567332572235379,-0.015884308080428976
0.06073745796940267,0.05166174585903216,-0.021642082724729686,10.738281749999999,-0.14709974999999997,-5.508068416666666,-0.00254791662408616,0.021176338145308345,0.07715271885373332,-0.026003945863295932,0.1427933281283871,0.06884419215233199,-0.001641940289496088,-0.005038702113909724,-0.008949407847125359,0.045661379395042445,0.04009975169375781,-0.036081375454490305
0.06422811647339133,0.06213372137099814,-0.0041887902047863905,10.648387458333334,-0.220649625,-5.434518541666667,-0.00254791662408616,0.021176338145308345,0.07715271885373332,-0.026003945863295932,0.1427933281283871,0.06884419215233199,-0.002303015347053849,-0.004665474843246998,-0.005598146913129989,0.004714430630432166,0.0026578654791692357,-0.03996970720178127
0.06911503837897544,0.07120943348136866,0.00767944870877505,10.640215249999999,-0.220649625,-5.352796458333333,-0.00254791662408616,0.021176338145308345,0.07715271885373332,-0.026003945863295932,0.1427933281283871,0.06884419215233199,-0.0018623173701626493,-0.0007190526034389616,-0.007345903419702509,-0.003343306164180277,0.014735366216143268,-0.031789763447403356
0.07260569688296412,0.07260569688296412,0.021642082724729686,10.648387458333334,-0.24516625,-5.287418791666666,-0.00254791662408616,0.021176338145308345,0.07715271885373332,-0.026003945863295932,0.1427933281283871,0.06884419215233199,0.0020296600263853804,-0.004931409041615218,-0.0020061932337911434,0.021258689954099703,-0.04697077015086401,-0.015211890979500918
0.06841690667817772,0.08237954069413235,0.02583087292951608,10.607526416666667,-0.14709974999999997,-5.254729958333334,-0.00254791662408616,0.021176338145308345,0.07715271885373332,-0.026003945863295932,0.1427933281283871,0.06884419215233199,0.001119567616978199,-0.00233187473630584,-0.0012688485945976586,-0.011408113351845968,-0.06733439669842407,-0.00675104330215062
0.06632251157578452,0.08726646259971647,0.028623399732707,10.632043041666666,-0.008172208333333333,-5.238385541666666,-0.00254791662408616,0.021176338145308345,0.07715271885373332,-0.026003945863295932,0.1427933281283871,0.06884419215233199,0.002268604487529785,-0.00918245040617426,0.003035344821425409,-0.04795856807638474,-0.05092286731857481,0.005810436108146758
0.06213372137099814,0.1054178868204575,0.023038346126325153,10.730109541666666,0.0980665,-5.24655775,-0.00254791662408616,0.021176338145308345,0.07715271885373332,-0.026003945863295932,0.1427933281283871,0.06884419215233199,0.006795411616242632,-0.004586926041911211,0.002864309920475133,0.07884356503698824,0.022734009374877132,-0.022682897081444466
0.048869219055841226,0.114493598930828,0.016755160819145562,10.574837583333332,0.057205458333333334,-5.1975245,-0.00254791662408616,0.021176338145308345,0.07715271885373332,-0.026003945863295932,0.1427933281283871,0.06884419215233199,0.005943516316039265,-0.007750345773520981,0.006340435834170234,-0.03556189649854265,-0.054167049402813666,-0.014009611222418956
0.03700098014227979,0.12985249634837812,0.0041887902047863905,10.648387458333334,0.17161637500000002,-5.164835666666666,-0.00254791662408616,0.021176338145308345,0.07715271885373332,-0.026003945863295932,0.1427933281283871,0.06884419215233199,0.005800760850690392,-0.0038451150664375214,0.006477165202965785,0.07103505326299447,0.027746116242046866,-0.030191258042669727
0.025132741228718346,0.13753194505715316,-0.008377580409572781,10.509459916666668,0.122583125,-5.099458,-0.00254791662408616,0.021176338145308345,0.07715271885373332,-0.026003945863295932,0.1427933281283871,0.06884419215233199,0.004809083334812285,-0.0036480124868069944,0.005980701638406824,0.04238002214468222,-0.045321317398139216,-0.009553130073147224
0.0153588974175501,0.14521139376592823,-0.020943951023931952,10.427737833333332,0.220649625,-5.074941374999999,-0.00254791662408616,0.021176338145308345,0.07715271885373332,-0.026003945863295932,0.1427933281283871,0.06884419215233199,0.004119754675745261,-0.0034013550212259563,-0.000882957715350026,0.08746471610358451,0.016329595706412306,-0.029706030705352816
0.00767944870877505,0.15219271077390556,-0.01884955592153876,10.256121458333332,0.196133,-5.009563708333333,-0.00254791662408616,0.021176338145308345,0.07715271885373332,-0.026003945863295932,0.1427933281283871,0.06884419215233199,0.006455188172498451,-0.0021400118850526018,-0.0012804617722747766,0.01796251367878008,0.03264422792056595,-0.001088490185810143
-0.005585053606381855,0.15638150097869194,-0.016057029118347832,10.223432625,0.13892754166666665,-5.0013914999999995,-0.00254791662408616,0.021176338145308345,0.07715271885373332,-0.026003945863295932,0.1427933281283871,0.06884419215233199,0.0027322740583755763,-0.004417346522099203,-0.007470135394498047,0.05076954601761424,0.08154254802306539,-0.009059580560052597
-0.01117010721276371,0.1647590813882647,-0.0013962634015954637,10.125366125,-0.016344416666666667,-4.976874874999999,-0.00254791662408616,0.021176338145308345,0.07715271885373332,-0.026003945863295932,0.1427933281283871,0.06884419215233199,-0.0016137132007662059,-0.010186303857955558,-0.005048421223900897,-0.0019719021447916515,0.02414337408448824,-0.00876000300379689
-0.00767944870877505,0.1850049007113989,0.009075712110370514,10.133538333333334,-0.057205458333333334,-4.95235825,-0.00254791662408616,0.021176338145308345,0.07715271885373332,-0.026003945863295932,0.1427933281283871,0.06884419215233199,-0.0013158985233862838,-0.005834655409727006,-0.004536648314758817,0.10026708774511084,0.05229305119804212,-0.02475334753410788
-0.005585053606381855,0.19687313962496036,0.01815142422074103,9.937405333333334,-0.15527195833333335,-4.895152791666666,-0.00254791662408616,0.021176338145308345,0.07715271885373332,-0.026003945863295932,0.1427933281283871,0.06884419215233199,-0.0022957984356513027,-0.006398229721330365,-0.005484290407193503,0.006353499863673811,0.006971282598496068,9.300693961439012e-05
-0.0006981317007977319,0.20943951023931953,0.028623399732707,9.929233125,-0.16344416666666667,-4.886980583333333,-0.00254791662408616,0.021176338145308345,0.07715271885373332,-0.026003945863295932,0.1427933281283871,0.06884419215233199,-0.0029190458829415154,-0.008121084949189977,-0.0014929594763930442,0.10871371919497178,-0.009391697712316011,0.004249948818952967
0.005585053606381855,0.22549653935766736,0.032114058236695664,9.716755708333332,-0.13892754166666665,-4.886980583333333,-0.00254791662408616,0.021176338145308345,0.07715271885373332,-0.026003945863295932,0.1427933281283871,0.06884419215233199,-0.002569022310171714,-0.004712076044181981,-0.002615888468437343,0.014893182411044408,-0.017816031617198823,0.0007778180357720108
0.010471975511965976,0.23527038316883564,0.03700098014227979,9.692239083333332,-0.0980665,-4.878808374999999,-0.00254791662408616,0.021176338145308345,0.07715271885373332,-0.026003945863295932,0.1427933281283871,0.06884419215233199,-0.0017015407554213918,-0.00510897437427944,-0.006301571604906638,0.08023733946130379,0.055378378906339364,-0.019679583252755362
0.013962634015954637,0.2457423586808016,0.04956735075663895,9.536967125,-0.20430520833333332,-4.829775124999999,-0.00254791662408616,0.021176338145308345,0.07715271885373332,-0.026003945863295932,0.1427933281283871,0.06884419215233199,-0.002581923527497099,-0.0029564819952905847,-0.005161612246943076,-0.029814588967167988,0.0019488050565450222,-0.011221007016638064
0.01884955592153876,0.25132741228718347,0.060039326268604934,9.602344791666665,-0.20430520833333332,-4.797086291666667,-0.00254791662408616,0.021176338145308345,0.07715271885373332,-0.026003945863295932,0.1427933281283871,0.06884419215233199,-0.001641349125592136,-0.004309633016880352,-0.00719507456036943,0.039514638614985595,-0.0022947168047604003,-0.03972195310016611
0.02234021442552742,0.25970499269675623,0.0747000919853573,9.528794916666666,-0.196133,-4.707191999999999,-0.00254791662408616,0.021176338145308345,0.07715271885373332,-0.026003945863295932,0.1427933281283871,0.06884419215233199,-0.0012161659026856842,-0.0003895316613588461,-0.006624408381915738,-0.029736213135535778,-0.04791239040152719,-0.019171501511865124
0.025132741228718346,0.260403124397554,0.0879645943005142,9.594172583333334,-0.0980665,-4.658158749999999,-0.00254791662408616,0.021176338145308345,0.07715271885373332,-0.026003945863295932,0.1427933281283871,0.06884419215233199,-0.0004937326781192575,-0.005447901807775568,-0.0008316599761110471,-0.04631616552935521,-0.01924838202178914,-0.0312559388960987
0.02583087292951608,0.2715732316103177,0.09005898940290741,9.692239083333332,-0.057205458333333334,-4.584608875,-0.00254791662408616,0.021176338145308345,0.07715271885373332,-0.026003945863295932,0.1427933281283871,0.06884419215233199,0.0029132669711248024,-0.006431958881666832,-0.000984426691868128,-0.03379182784301341,-0.03578935448162824,-0.00217272702395547
0.02024581932313422,0.2841396022246769,0.09145525280450287,9.765788958333333,0.016344416666666667,-4.568264458333333,-0.00254791662408616,0.021176338145308345,0.07715271885373332,-0.026003945863295932,0.1427933281283871,0.06884419215233199,0.003284022452615586,-0.010331270330966232,0.002592852161000484,0.003215988800167312,-0.011242494002526133,-0.001912144101193088
0.013264502315156905,0.3050835532486088,0.08656833089891874,9.765788958333333,0.04086104166666667,-4.5519200416666665,-0.00254791662408616,0.021176338145308345,0.07715271885373332,-0.026003945863295932,0.1427933281283871,0.06884419215233199,0.004316223009680023,-0.006170042529389135,0.003460369940213092,-0.017012086679294228,-0.014818901328161202,0.015016280376885648
0.004886921905584123,0.31695179216217023,0.07958701389094143,9.80665,0.07354987499999999,-4.568264458333333,-0.00254791662408616,0.021176338145308345,0.07715271885373332,-0.026003945863295932,0.1427933281283871,0.06884419215233199,0.004189397538806491,-0.00672656247986881,0.005245529719755218,0.06045983235143536,-0.01879029629406357,-0.042037291565744435
-0.003490658503988659,0.3309144261781249,0.06911503837897544,9.692239083333332,0.11441091666666667,-4.4701979583333324,-0.00254791662408616,0.021176338145308345,0.07715271885373332,-0.026003945863295932,0.1427933281283871,0.06884419215233199,0.004019394793729943,-0.0036437882582758324,0.0025758085700732067,0.036354581025769536,-0.014420481476935369,-0.009208961082982973
-0.011868238913561441,0.3378957431861022,0.06422811647339133,9.626861416666666,0.14709974999999997,-4.437509125,-0.00254791662408616,0.021176338145308345,0.07715271885373332,-0.026003945863295932,0.1427933281283871,0.06884419215233199,0.0053443632974133435,-0.006799491911494083,0.0055600799960286796,0.056621576244938736,0.04725905941220508,-0.004818319103942853
-0.02234021442552742,0.3518583772020568,0.05305800926062762,9.520622708333333,0.057205458333333334,-4.4129925,-0.00254791662408616,0.021176338145308345,0.07715271885373332,-0.026003945863295932,0.1427933281283871,0.06884419215233199,0.0026827662906059755,0.00010497184199479335,0.0014428098809761076,0.03632711359773102,0.006500582183356011,-0.025256355438589284
-0.02722713633111154,0.3511602455012591,0.05026548245743669,9.455245041666666,0.04903325,-4.347614833333333,-0.00254791662408616,0.021176338145308345,0.07715271885373332,-0.026003945863295932,0.1427933281283871,0.06884419215233199,0.0010076636191120863,-0.004420726038595253,0.0002177030591270308,0.03643335177217915,0.02723791853026746,0.027988497173630226
-0.029321531433504733,0.36023595761162963,0.04956735075663895,9.389867375,0.0,-4.388475875,-0.00254791662408616,0.021176338145308345,0.07715271885373332,-0.026003945863295932,0.1427933281283871,0.06884419215233199,-0.0006061892580821376,-0.00566209700641884,-0.003971015539742925,0.04474271787620131,0.051541404760276015,0.011665065399089658
-0.028623399732707,0.3714060648243933,0.05794493116621174,9.308145291666667,-0.0980665,-4.396648083333333,-0.00254791662408616,0.021176338145308345,0.07715271885373332,-0.026003945863295932,0.1427933281283871,0.06884419215233199,-0.00299438910572414,-0.0066201411366505515,-0.0038073757764179985,0.016181788046151595,0.026791550792523135,-0.020669904290704824
-0.02234021442552742,0.3846705671395502,0.06562437987498679,9.283628666666665,-0.14709974999999997,-4.339442625,-0.00254791662408616,0.021176338145308345,0.07715271885373332,-0.026003945863295932,0.1427933281283871,0.06884419215233199,-0.0031324194979004687,-0.005884027328875924,-0.008954142080492155,0.10207299361575184,-0.0021884837084898737,-0.02879751834484111
-0.016057029118347832,0.3965388060531116,0.08307767239493008,9.087495666666666,-0.13892754166666665,-4.26589275,-0.00254791662408616,0.021176338145308345,0.07715271885373332,-0.026003945863295932,0.1427933281283871,0.06884419215233199,-0.0019448406977247675,-0.008875113207270517,-0.005570238148986105,0.057105415118206666,-0.010710093948652485,-0.016112171587570126
-0.011868238913561441,0.41399209857305497,0.09494591130849153,8.981256958333333,-0.11441091666666667,-4.2168595,-0.00254791662408616,0.021176338145308345,0.07715271885373332,-0.026003945863295932,0.1427933281283871,0.06884419215233199,-0.0025441466488378165,-0.0025167397572337102,-0.007265361443299702,0.057215857209417485,-0.02345378525286026,-0.012000449831074792
-0.006981317007977318,0.41887902047863906,0.10890854532444616,8.87501825,-0.06537766666666667,-4.175998458333333,-0.00254791662408616,0.021176338145308345,0.07715271885373332,-0.026003945863295932,0.1427933281283871,0.06884419215233199,-0.0027304390149944812,-0.004305849480188052,0.0024080098675564768,0.008499944694634946,-0.02343031023273646,0.0004604832472910157
-0.0013962634015954637,0.42795473258900957,0.10402162341886204,8.866846041666665,-0.016344416666666667,-4.159654041666666,-0.00254791662408616,0.021176338145308345,0.07715271885373332,-0.026003945863295932,0.1427933281283871,0.06884419215233199,0.0007172124902812064,-0.004286959839789274,0.00012586305599350737,0.0451383766963568,-0.05208513396395175,0.025145305090222614
-0.0027925268031909274,0.4363323129985824,0.10402162341886204,8.785123958333333,0.08989429166666667,-4.192342875,-0.00254791662408616,0.021176338145308345,0.07715271885373332,-0.026003945863295932,0.1427933281283871,0.06884419215233199,0.001691099058208155,-0.0034466740500522382,0.0036614788834887706,-0.020178467106093657,-0.07241813743044276,0.008953391678624162
-0.006283185307179587,0.44331363000655966,0.09704030641088471,8.834157208333334,0.23699404166666665,-4.192342875,-0.00254791662408616,0.021176338145308345,0.07715271885373332,-0.026003945863295932,0.1427933281283871,0.06884419215233199,0.004850552083774346,-0.0034299737003618746,0.004060403212803132,0.028976262484286915,-0.0476470770021205,0.00901864253304559
-0.016057029118347832,0.44959681531373935,0.08866272600131193,8.785123958333333,0.3350605416666666,-4.192342875,-0.00254791662408616,0.021176338145308345,0.07715271885373332,-0.026003945863295932,0.1427933281283871,0.06884419215233199,0.005975754210499517,-0.00015053591749120964,0.00886207322380489,-0.12614640583752437,-0.05550803299514117,0.02587301261662294
-0.027925268031909273,0.45029494701453704,0.07120943348136866,9.046634625,0.4494714583333333,-4.225031708333333,-0.00254791662408616,0.021176338145308345,0.07715271885373332,-0.026003945863295932,0.1427933281283871,0.06884419215233199,0.006535613255473003,-0.0010536816992512753,0.007721597037480977,-0.007794669399652796,0.034985691017264856,-0.03138101639675137
-0.04049163864626844,0.45238934211693027,0.05585053606381855,9.07115125,0.3840937916666667,-4.143309625,-0.00254791662408616,0.021176338145308345,0.07715271885373332,-0.026003945863295932,0.1427933281283871,0.06884419215233199,0.005100610195478507,-1.927781150545712e-05,0.011685991968513245,-0.1343444369026024,0.04369547484194458,-0.002424811424335755
-0.050963614158234416,0.45238934211693027,0.032114058236695664,9.349006333333334,0.3023717083333333,-4.118792999999999,-0.00254791662408616,0.021176338145308345,0.07715271885373332,-0.026003945863295932,0.1427933281283871,0.06884419215233199,0.000992049870001995,-0.0031831169301740096,0.007416383663954101,0.008366344738049805,0.12999421271843203,-0.03926637524791803
-0.05305800926062762,0.45867252742410985,0.017453292519943295,9.340834124999999,0.04903325,-4.020726499999999,-0.00254791662408616,0.021176338145308345,0.07715271885373332,-0.026003945863295932,0.1427933281283871,0.06884419215233199,-0.002100086676688542,-0.000220238943568983,0.00563953841519245,-0.11405122363833464,0.019990632896486588,0.01437479944642744
-0.048869219055841226,0.45867252742410985,0.006283185307179587,9.577828166666666,0.016344416666666667,-4.028898708333333,-0.00254791662408616,0.021176338145308345,0.07715271885373332,-0.026003945863295932,0.1427933281283871,0.06884419215233199,-0.0033414149445984984,-0.003513921491241102,-0.003098239903349596,0.02486785750371139,0.06494956934935692,0.0021088097545443768
-0.041887902047863905,0.4663519761328848,0.012566370614359173,9.536967125,-0.10623870833333333,-4.0125542916666666,-0.00254791662408616,0.021176338145308345,0.07715271885373332,-0.026003945863295932,0.1427933281283871,0.06884419215233199,-0.002656754232187883,-0.0032842322642207527,-0.004535610715978168,-0.0443850266668991,0.02388473759068132,0.03098772415649289
-0.03700098014227979,0.4726351614400644,0.021642082724729686,9.635033625,-0.14709974999999997,-4.053415333333333,-0.00254791662408616,0.021176338145308345,0.07715271885373332,-0.026003945863295932,0.1427933281283871,0.06884419215233199,-0.006505425850889369,-0.006001702354415982,-0.005830414320149104,0.07002409299362945,0.07676670876905312,0.031166571636588696
-0.023736477827122883,0.4845034003536259,0.033510321638291124,9.504278291666665,-0.29419949999999995,-4.094276375,-0.00254791662408616,0.021176338145308345,0.07715271885373332,-0.026003945863295932,0.1427933281283871,0.06884419215233199,-0.005406762591803375,-0.008147945403483087,-0.004047599499376516,0.0213451830151423,0.014826830206400654,0.03941628301580967
-0.012566370614359173,0.5005604294719737,0.041189770347066175,9.471589458333332,-0.318716125,-4.151481833333333,-0.00254791662408616,0.021176338145308345,0.07715271885373332,-0.026003945863295932,0.1427933281283871,0.06884419215233199,-0.003868848904156454,-0.005635577416853553,-0.004937873571456117,0.1725315306792701,0.026946440120066088,-0.013548869091787706
-0.004886921905584123,0.5124286683855351,0.05166174585903216,9.136528916666666,-0.367749375,-4.1024485833333335,-0.00254791662408616,0.021176338145308345,0.07715271885373332,-0.026003945863295932,0.1427933281283871,0.06884419215233199,-0.005535530799171291,-0.00030341127137854297,-0.00022666210714188887,0.09908598634151368,-0.05912481498118201,0.010969583591510164
0.006283185307179587,0.5124286683855351,0.05166174585903216,8.948568125,-0.24516625,-4.1024485833333335,-0.00254791662408616,0.021176338145308345,0.07715271885373332,-0.026003945863295932,0.1427933281283871,0.06884419215233199,-0.0012614750414843875,-0.0020139881265586294,0.0018519715497039217,0.13578099768472993,-0.06336343521312497,-0.030429940604524443
0.009075712110370514,0.5166174585903216,0.04817108735504349,8.687057458333333,-0.11441091666666667,-4.020726499999999,-0.00254791662408616,0.021176338145308345,0.07715271885373332,-0.026003945863295932,0.1427933281283871,0.06884419215233199,-0.00044961130238491614,0.003630112665102516,0.0004296045085471286,0.06221494444531591,-0.026520287915266474,0.014511662391808448
