angular_velocity_x,angular_velocity_y,angular_velocity_z,linear_acceleration_x,linear_acceleration_y,linear_acceleration_z,fake_gyro_bias_x,fake_gyro_bias_y,fake_gyro_bias_z,fake_acc_bias_x,fake_acc_bias_y,fake_acc_bias_z,fake_gyro_noise_x,gyro_noise_y,gyro_noise_z,fake_acc_noise_x,fake_acc_noise_y,fake_acc_noise_z
-0.0041887902047863905,0.04328416544945937,0.09634217471008698,9.455245041666666,-0.6292600416666666,-2.459834708333333,-0.0025777422858049765,0.0212799742605337,0.07684054076841942,-0.02559540815813044,0.12433361564350862,0.058080463256082425,0.0,0.0,0.0,0.0,0.0,0.0
-0.006283185307179587,0.041189770347066175,0.0879645943005142,9.430728416666666,-0.5148491249999999,-2.4516625,-0.0025777422858049765,0.0212799742605337,0.07684054076841942,-0.02559540815813044,0.12433361564350862,0.058080463256082425,0.0,0.0,0.0,0.0,0.0,0.0
-0.005585053606381855,0.03490658503988659,0.07888888219014369,9.357178541666666,-0.48216029166666663,-2.427145875,-0.0025777422858049765,0.0212799742605337,0.07684054076841942,-0.02559540815813044,0.12433361564350862,0.058080463256082425,0.0,0.0,0.0,0.0,0.0,0.0
-0.009773843811168246,0.027925268031909273,0.0635299847725936,9.398039583333333,-0.4739880833333333,-2.427145875,-0.0025777422858049765,0.0212799742605337,0.07684054076841942,-0.02559540815813044,0.12433361564350862,0.058080463256082425,0.0,0.0,0.0,0.0,0.0,0.0
-0.016755160819145562,0.02583087292951608,0.050963614158234416,9.414383999999998,-0.43312704166666666,-2.3944570416666666,-0.0025777422858049765,0.0212799742605337,0.07684054076841942,-0.02559540815813044,0.12433361564350862,0.058080463256082425,0.0,0.0,0.0,0.0,0.0,0.0
-0.019547687622336492,0.013264502315156905,0.03490658503988659,9.36535075,-0.4903325,-2.3944570416666666,-0.0025777422858049765,0.0212799742605337,0.07684054076841942,-0.02559540815813044,0.12433361564350862,0.058080463256082425,0.0,0.0,0.0,0.0,0.0,0.0
-0.020943951023931952,0.006981317007977318,0.032114058236695664,9.553311541666666,-0.612915625,-2.40262925,-0.0025777422858049765,0.0212799742605337,0.07684054076841942,-0.02559540815813044,0.12433361564350862,0.058080463256082425,0.0,0.0,0.0,0.0,0.0,0.0
-0.020943951023931952,0.0153588974175501,0.030019663134302467,9.536967125,-0.7273265416666667,-2.3699404166666667,-0.0025777422858049765,0.0212799742605337,0.07684054076841942,-0.02559540815813044,0.12433361564350862,0.058080463256082425,0.0,0.0,0.0,0.0,0.0,0.0
-0.01815142422074103,0.019547687622336492,0.03700098014227979,9.5124505,-0.9152873333333333,-2.3535959999999996,-0.0025777422858049765,0.0212799742605337,0.07684054076841942,-0.02559540815813044,0.12433361564350862,0.058080463256082425,0.0,0.0,0.0,0.0,0.0,0.0
-0.01884955592153876,0.028623399732707,0.047472955654245766,9.487933875,-1.0460426666666667,-2.3699404166666667,-0.0025777422858049765,0.0212799742605337,0.07684054076841942,-0.02559540815813044,0.12433361564350862,0.058080463256082425,0.0,0.0,0.0,0.0,0.0,0.0
-0.006283185307179587,0.024434609527920613,0.06492624817418906,9.349006333333334,-1.12776475,-2.3944570416666666,-0.0025777422858049765,0.0212799742605337,0.07684054076841942,-0.02559540815813044,0.12433361564350862,0.058080463256082425,0.0,0.0,0.0,0.0,0.0,0.0
-0.0020943951023931952,0.02722713633111154,0.08517206749732328,9.26728425,-1.0869037083333333,-2.4108014583333333,-0.0025777422858049765,0.0212799742605337,0.07684054076841942,-0.02559540815813044,0.12433361564350862,0.058080463256082425,0.0,0.0,0.0,0.0,0.0,0.0
-0.0027925268031909274,0.020943951023931952,0.10890854532444616,9.234595416666666,-1.0787315,-2.4925235416666665,-0.0025777422858049765,0.0212799742605337,0.07684054076841942,-0.02559540815813044,0.12433361564350862,0.058080463256082425,0.0,0.0,0.0,0.0,0.0,0.0
-0.003490658503988659,0.02234021442552742,0.12845623294678266,9.373522958333332,-0.9643205833333333,-2.5415567916666664,-0.0025777422858049765,0.0212799742605337,0.07684054076841942,-0.02559540815813044,0.12433361564350862,0.058080463256082425,0.0,0.0,0.0,0.0,0.0,0.0
-0.004886921905584123,0.02234021442552742,0.14521139376592823,9.357178541666666,-0.93163175,-2.5905900416666663,-0.0025777422858049765,0.0212799742605337,0.07684054076841942,-0.02559540815813044,0.12433361564350862,0.058080463256082425,0.0,0.0,0.0,0.0,0.0,0.0
-0.0020943951023931952,0.020943951023931952,0.1647590813882647,9.381695166666667,-0.9152873333333333,-2.5660734166666663,-0.0025777422858049765,0.0212799742605337,0.07684054076841942,-0.02559540815813044,0.12433361564350862,0.058080463256082425,0.0,0.0,0.0,0.0,0.0,0.0
-0.0013962634015954637,0.006981317007977318,0.17523105690023066,9.308145291666667,-0.9071151249999999,-2.4108014583333333,-0.0025777422858049765,0.0212799742605337,0.07684054076841942,-0.02559540815813044,0.12433361564350862,0.058080463256082425,0.0,0.0,0.0,0.0,0.0,0.0
0.006981317007977318,-0.0013962634015954637,0.17383479349863523,9.357178541666666,-0.83356525,-2.3454237916666667,-0.0025777422858049765,0.0212799742605337,0.07684054076841942,-0.02559540815813044,0.12433361564350862,0.058080463256082425,0.0,0.0,0.0,0.0,0.0,0.0
0.01117010721276371,-0.009773843811168246,0.17034413499464657,9.406211791666665,-0.5883989999999999,-2.3617682083333333,-0.0025777422858049765,0.0212799742605337,0.07684054076841942,-0.02559540815813044,0.12433361564350862,0.058080463256082425,0.0,0.0,0.0,0.0,0.0,0.0
0.009773843811168246,-0.013962634015954637,0.15638150097869194,9.545139333333333,-0.392266,-2.3290793749999996,-0.0025777422858049765,0.0212799742605337,0.07684054076841942,-0.02559540815813044,0.12433361564350862,0.058080463256082425,0.0,0.0,0.0,0.0,0.0,0.0
0.003490658503988659,-0.023038346126325153,0.1361356816555577,9.561483749999999,-0.2533384583333333,-2.3045627499999997,-0.0025777422858049765,0.0212799742605337,0.07684054076841942,-0.02559540815813044,0.12433361564350862,0.058080463256082425,0.004296225140392942,-0.0019239579675461253,0.011854049311909297,-0.05258864247737091,-0.0035169985308916045,0.0310762379485141
-0.005585053606381855,-0.019547687622336492,0.11239920382843484,9.667722458333333,-0.24516625,-2.3699404166666667,-0.0025777422858049765,0.0212799742605337,0.07684054076841942,-0.02559540815813044,0.12433361564350862,0.058080463256082425,0.0031335246495291223,-0.0007875487827708138,0.006424126040197859,0.033177444022994836,0.03779082672329411,-0.04232742368872225
-0.01117010721276371,-0.017453292519943295,0.09983283321407566,9.602344791666665,-0.318716125,-2.288218333333333,-0.0025777422858049765,0.0212799742605337,0.07684054076841942,-0.02559540815813044,0.12433361564350862,0.058080463256082425,0.0024896460839504042,-0.005904120195712682,0.0074034689206382885,0.02114261054407081,0.042280201979068996,0.006742364409026882
-0.016755160819145562,-0.005585053606381855,0.08517206749732328,9.561483749999999,-0.4004382083333333,-2.3045627499999997,-0.0025777422858049765,0.0212799742605337,0.07684054076841942,-0.02559540815813044,0.12433361564350862,0.058080463256082425,-0.0020227612572570634,0.00024828561625201036,-0.0008357234688263763,0.11497124554322265,0.0832977209727072,-0.013363508509019385
-0.012566370614359173,-0.006283185307179587,0.08726646259971647,9.332661916666666,-0.563882375,-2.280046125,-0.0025777422858049765,0.0212799742605337,0.07684054076841942,-0.02559540815813044,0.12433361564350862,0.058080463256082425,-0.002855107001625106,-0.0019081783233823937,0.001356259469421518,-0.027925733152259595,0.042372854383055596,0.035586802423569694
-0.006981317007977318,-0.0027925268031909274,0.08447393579652555,9.389867375,-0.6456044583333332,-2.3535959999999996,-0.0025777422858049765,0.0212799742605337,0.07684054076841942,-0.02559540815813044,0.12433361564350862,0.058080463256082425,-0.0013524126753660423,-0.004307444734320377,-0.0010401375049569636,-0.011719233988621033,-0.010858423222357107,0.0521945702550305
-0.0041887902047863905,0.006283185307179587,0.08587019919812101,9.414383999999998,-0.6210878333333334,-2.459834708333333,-0.0025777422858049765,0.0212799742605337,0.07684054076841942,-0.02559540815813044,0.12433361564350862,0.058080463256082425,0.0008853662351057532,-0.008243153234701393,0.002313482167931748,-0.08090585245779644,-0.047338203095939696,0.08907637923885002
-0.006283185307179587,0.02234021442552742,0.08168140899333462,9.577828166666666,-0.5230213333333333,-2.6396232916666666,-0.0025777422858049765,0.0212799742605337,0.07684054076841942,-0.02559540815813044,0.12433361564350862,0.058080463256082425,0.002472364427439004,-0.004539430229300799,0.0014113733931308983,0.0417326518038339,0.009868738509379813,0.04052297829759271
-0.01117010721276371,0.031415926535897934,0.07888888219014369,9.496106083333332,-0.53936575,-2.7213453750000003,-0.0025777422858049765,0.0212799742605337,0.07684054076841942,-0.02559540815813044,0.12433361564350862,0.058080463256082425,0.004357673329290304,-0.004845294131069956,0.0020169600596728317,0.03357016445328315,0.001674610784238148,0.012070016604509485
-0.019547687622336492,0.041189770347066175,0.0747000919853573,9.430728416666666,-0.53936575,-2.7458620000000002,-0.0025777422858049765,0.0212799742605337,0.07684054076841942,-0.02559540815813044,0.12433361564350862,0.058080463256082425,0.0003666338590167877,0.001801039099057717,0.00257607553149202,0.15851951922606178,0.010377007835856355,-0.029269552128217174
-0.02024581932313422,0.03769911184307752,0.06981317007977318,9.218250999999999,-0.612915625,-2.69682875,-0.0025777422858049765,0.0212799742605337,0.07684054076841942,-0.02559540815813044,0.12433361564350862,0.058080463256082425,-0.00018311581562290927,0.004226267399572402,0.0023892727469236315,0.049931971892906754,0.05505861282574988,-0.0003175869027125673
-0.02024581932313422,0.029321531433504733,0.06492624817418906,9.1201845,-0.7191543333333333,-2.69682875,-0.0025777422858049765,0.0212799742605337,0.07684054076841942,-0.02559540815813044,0.12433361564350862,0.058080463256082425,-0.0023523808388105903,0.007832372258441023,-0.0005407942715137993,-0.015494988974537513,0.051168530870753466,0.032168511455221205
-0.0153588974175501,0.013962634015954637,0.06632251157578452,9.152873333333332,-0.8172208333333333,-2.7622064166666664,-0.0025777422858049765,0.0212799742605337,0.07684054076841942,-0.02559540815813044,0.12433361564350862,0.058080463256082425,-0.00730867008056795,0.005376284093949414,0.001619029100051906,-0.18716003790363595,-0.0021571049706456216,0.06443515819354655
-0.0006981317007977319,0.0027925268031909274,0.06283185307179587,9.528794916666666,-0.809048625,-2.8929617499999996,-0.0025777422858049765,0.0212799742605337,0.07684054076841942,-0.02559540815813044,0.12433361564350862,0.058080463256082425,-0.006566529791159959,-0.001732679496533822,0.003136534614910347,-0.08108568186473729,-0.026322001320184713,0.003157090421644043
0.012566370614359173,0.006283185307179587,0.056548667764616284,9.692239083333332,-0.7518431666666666,-2.9011339583333333,-0.0025777422858049765,0.0212799742605337,0.07684054076841942,-0.02559540815813044,0.12433361564350862,0.058080463256082425,-0.003071107794741253,-0.005173670022326204,0.007600898710999656,-0.14223242143997064,-0.08770613411370148,0.048356218132421
0.01884955592153876,0.016057029118347832,0.041887902047863905,9.978266375,-0.5720545833333333,-2.999200458333333,-0.0025777422858049765,0.0212799742605337,0.07684054076841942,-0.02559540815813044,0.12433361564350862,0.058080463256082425,-0.0015325658135037375,-0.011525751504042704,0.004736789052159459,-0.08083030528639167,-0.03431305230365589,0.05265766161903166
0.021642082724729686,0.039793506945470715,0.032114058236695664,10.141710541666667,-0.4985047083333333,-3.1054391666666663,-0.0025777422858049765,0.0212799742605337,0.07684054076841942,-0.02559540815813044,0.12433361564350862,0.058080463256082425,0.004536761281293212,-0.0138924259994315,0.0044235974280322716,-0.00300133955059663,-0.050178630189404105,0.04120005031442548
0.012566370614359173,0.06702064327658225,0.023038346126325153,10.149882749999998,-0.392266,-3.18716125,-0.0025777422858049765,0.0212799742605337,0.07684054076841942,-0.02559540815813044,0.12433361564350862,0.058080463256082425,0.006254000087610423,-0.015844252871734008,-0.0035981151770573296,0.13631053978294783,0.08454776525989059,-0.03152123577586949
0.0,0.0991347015132779,0.0307177948351002,9.880199875,-0.5557101666666666,-3.1217835833333334,-0.0025777422858049765,0.0212799742605337,0.07684054076841942,-0.02559540815813044,0.12433361564350862,0.058080463256082425,-0.0005589411216871225,-0.006720282351851161,-0.005940473971725021,0.09970871243259119,0.12935906364861582,-0.01891902885400786
0.0013962634015954637,0.11239920382843484,0.04258603374866164,9.684066875,-0.809048625,-3.0809225416666663,-0.0025777422858049765,0.0212799742605337,0.07684054076841942,-0.02559540815813044,0.12433361564350862,0.058080463256082425,-0.006903995064052229,-0.0008277525655031906,-0.013142226483034978,0.26645278225613916,0.12345843226170944,-0.08133901656911782
0.0153588974175501,0.114493598930828,0.06911503837897544,9.308145291666667,-1.1359369583333332,-2.9174783749999995,-0.0025777422858049765,0.0212799742605337,0.07684054076841942,-0.02559540815813044,0.12433361564350862,0.058080463256082425,-0.012555622850080701,0.005246625041775964,-0.01391862715924987,0.025920812824620786,0.083101511685881,-0.0678451908944104
0.04049163864626844,0.10332349171806432,0.09704030641088471,9.259112041666667,-1.299381125,-2.778550833333333,-0.0025777422858049765,0.0212799742605337,0.07684054076841942,-0.02559540815813044,0.12433361564350862,0.058080463256082425,-0.014548255700210089,0.008102353710584763,-0.009592745076411514,0.08701732141159817,-0.05252678037054446,-0.03550216080361744
0.06981317007977318,0.08726646259971647,0.11588986233242347,9.087495666666666,-1.1931424166666666,-2.705000958333333,-0.0025777422858049765,0.0212799742605337,0.07684054076841942,-0.02559540815813044,0.12433361564350862,0.058080463256082425,-0.008801377724009976,0.00862888208774591,-0.00909980986605532,-0.08056053596390003,-0.15932670016551057,-0.011258372529348748
0.08726646259971647,0.07051130178057091,0.1340412865531645,9.250939833333334,-0.8744262916666666,-2.680484333333333,-0.0025777422858049765,0.0212799742605337,0.07684054076841942,-0.02559540815813044,0.12433361564350862,0.058080463256082425,-0.0031333616700132405,0.0027959769385667594,-0.005345039492749821,-0.03995506220521133,-0.09839795300612052,-0.0319390144493701
0.09354964790689606,0.06422811647339133,0.14521139376592823,9.332661916666666,-0.6782932916666666,-2.6151066666666667,-0.0025777422858049765,0.0212799742605337,0.07684054076841942,-0.02559540815813044,0.12433361564350862,0.058080463256082425,0.0016500329576947207,0.0016820933973461258,-0.00010878162931126411,-0.08902007223741906,-0.020926293865488832,-0.04423205935784289
0.09005898940290741,0.06073745796940267,0.14521139376592823,9.5124505,-0.63743225,-2.5252123749999997,-0.0025777422858049765,0.0212799742605337,0.07684054076841942,-0.02559540815813044,0.12433361564350862,0.058080463256082425,0.0004101670091127778,0.001555433363735773,-0.004135791875656124,0.017254263684419673,-0.07001095856063184,-0.052671146433878484
0.08936085770210968,0.05794493116621174,0.153588974175501,9.479761666666667,-0.4985047083333333,-2.4189736666666666,-0.0025777422858049765,0.0212799742605337,0.07684054076841942,-0.02559540815813044,0.12433361564350862,0.058080463256082425,0.00308800964697737,-0.003082973369050219,-0.003155199774504146,-0.08488309284533815,-0.04176650628950817,-0.024019196082273826
0.08307767239493008,0.06422811647339133,0.15987215948268058,9.651378041666666,-0.416782625,-2.3699404166666667,-0.0025777422858049765,0.0212799742605337,0.07684054076841942,-0.02559540815813044,0.12433361564350862,0.058080463256082425,0.009424225829630036,-0.0004227860535668259,0.0012813850522560549,0.09494152791439515,-0.02930424195237018,-0.003472596999373627
0.06422811647339133,0.06492624817418906,0.15707963267948966,9.46341725,-0.35957716666666667,-2.3617682083333333,-0.0025777422858049765,0.0212799742605337,0.07684054076841942,-0.02559540815813044,0.12433361564350862,0.058080463256082425,0.006744991658129329,0.0018679648351771776,0.005190772700576046,-0.09300671666546213,-0.045378385674396296,-0.007520944681835083
0.050963614158234416,0.0614355896702004,0.1466076571675237,9.651378041666666,-0.269682875,-2.3454237916666667,-0.0025777422858049765,0.0212799742605337,0.07684054076841942,-0.02559540815813044,0.12433361564350862,0.058080463256082425,0.008578973820103229,0.003214476984410796,0.011002378096745858,0.15871211163767215,0.01979019047724509,-0.047375792914980015
0.033510321638291124,0.05445427266222308,0.124965574442794,9.520622708333333,-0.416782625,-2.2718739166666664,-0.0025777422858049765,0.0212799742605337,0.07684054076841942,-0.02559540815813044,0.12433361564350862,0.058080463256082425,0.008309637504771233,0.011560708308684636,0.014117414233961418,-0.044024273293984305,-0.0033196510182247475,0.00827455030018847
0.017453292519943295,0.031415926535897934,0.09704030641088471,9.610517,-0.40861041666666664,-2.288218333333333,-0.0025777422858049765,0.0212799742605337,0.07684054076841942,-0.02559540815813044,0.12433361564350862,0.058080463256082425,0.006705933605663309,0.0035285212256434624,0.009163135583239682,-0.06861610221785888,-0.010931880154292136,-0.004393612816939906
0.003490658503988659,0.024434609527920613,0.07888888219014369,9.749444541666666,-0.3840937916666667,-2.280046125,-0.0025777422858049765,0.0212799742605337,0.07684054076841942,-0.02559540815813044,0.12433361564350862,0.058080463256082425,0.005011257876863551,0.003492293790409671,0.009442636114875497,-0.056353856675123326,0.018342518971575527,-0.0372539012834137
-0.006283185307179587,0.017453292519943295,0.060039326268604934,9.863855458333333,-0.416782625,-2.20649625,-0.0025777422858049765,0.0212799742605337,0.07684054076841942,-0.02559540815813044,0.12433361564350862,0.058080463256082425,0.0059104041470837455,0.0036026178340139337,0.0063981024209511005,0.01697681198197014,-0.02212232520119455,-0.07029223243723381
-0.01815142422074103,0.010471975511965976,0.04677482395344803,9.831166624999998,-0.367749375,-2.0675687083333334,-0.0025777422858049765,0.0212799742605337,0.07684054076841942,-0.02559540815813044,0.12433361564350862,0.058080463256082425,0.005031532683034228,-0.00429189311933454,0.00523077818400986,-0.10134809618897152,-0.030067270491561986,0.044322690520320174
-0.027925268031909273,0.01884955592153876,0.03700098014227979,10.035471833333334,-0.3023717083333333,-2.157463,-0.0025777422858049765,0.0212799742605337,0.07684054076841942,-0.02559540815813044,0.12433361564350862,0.058080463256082425,0.005584228923942392,-0.0051072688444369204,0.006880591754901296,0.09083124516619269,0.0601321667315515,-0.012869233278321372
-0.039095375244672985,0.028623399732707,0.023038346126325153,9.855683249999998,-0.416782625,-2.132946375,-0.0025777422858049765,0.0212799742605337,0.07684054076841942,-0.02559540815813044,0.12433361564350862,0.058080463256082425,0.0028653553301386764,-0.0024467750692891404,0.006627678190888151,0.009129516083710865,-0.0456015119025233,-0.004379145200187956
-0.04537856055185257,0.033510321638291124,0.009773843811168246,9.839338833333333,-0.318716125,-2.1247741666666666,-0.0025777422858049765,0.0212799742605337,0.07684054076841942,-0.02559540815813044,0.12433361564350862,0.058080463256082425,0.003319139649851603,-0.006328605778600077,0.005557458306935955,0.17260862845093874,0.003719737915534879,-0.04516517749489467
-0.05166174585903216,0.04677482395344803,-0.0013962634015954637,9.496106083333332,-0.318716125,-2.0348798749999997,-0.0025777422858049765,0.0212799742605337,0.07684054076841942,-0.02559540815813044,0.12433361564350862,0.058080463256082425,0.004622914899500396,0.0036135355581982742,0.011460284692561737,0.017249803282944627,0.016416945551156362,0.036694646714396956
-0.06073745796940267,0.039095375244672985,-0.024434609527920613,9.46341725,-0.34323275000000003,-2.10842975,-0.0025777422858049765,0.0212799742605337,0.07684054076841942,-0.02559540815813044,0.12433361564350862,0.058080463256082425,0.011189637364374231,0.0035374558472663696,0.0033739068975447402,0.1522190603953598,0.03711722381267877,-0.07799985031884371
-0.08307767239493008,0.032114058236695664,-0.0307177948351002,9.161045541666667,-0.40861041666666664,-1.9531577916666665,-0.0025777422858049765,0.0212799742605337,0.07684054076841942,-0.02559540815813044,0.12433361564350862,0.058080463256082425,0.003324453255543001,0.006607790784311765,0.006231445403701811,0.005181974847792703,0.037464512556907685,0.023974155139866192
-0.09005898940290741,0.01884955592153876,-0.04328416544945937,9.152873333333332,-0.4739880833333333,-2.0021910416666664,-0.0025777422858049765,0.0212799742605337,0.07684054076841942,-0.02559540815813044,0.12433361564350862,0.058080463256082425,0.005696374206352648,0.0017305928094198653,0.004322155007385358,0.005097096211978993,0.07456212612956392,0.027967090663328784
-0.10122909661567112,0.0153588974175501,-0.05166174585903216,9.144701125,-0.612915625,-2.0593964999999996,-0.0025777422858049765,0.0212799742605337,0.07684054076841942,-0.02559540815813044,0.12433361564350862,0.058080463256082425,0.0028634277841510696,0.0022506128707642076,0.003412675678672548,-0.09308239601204983,0.005221141108671702,0.05217197321202689
-0.10681415022205297,0.01117010721276371,-0.05864306286700947,9.332661916666666,-0.612915625,-2.1656352083333332,-0.0025777422858049765,0.0212799742605337,0.07684054076841942,-0.02559540815813044,0.12433361564350862,0.058080463256082425,0.004099911374227427,-0.004904333193174642,0.0014742968280817034,0.009348540646452717,0.058742844786407206,0.048207864810011936
-0.11519173063162574,0.020943951023931952,-0.06213372137099814,9.316317499999998,-0.7191543333333333,-2.263701708333333,-0.0025777422858049765,0.0212799742605337,0.07684054076841942,-0.02559540815813044,0.12433361564350862,0.058080463256082425,-0.0005536115702998489,0.0002754987614455533,-5.635498816400586e-05,-0.09699321205717214,0.11616252216269747,0.10120130345749509
-0.11379546723003027,0.02024581932313422,-0.0614355896702004,9.5124505,-0.9398039583333333,-2.4680069166666665,-0.0025777422858049765,0.0212799742605337,0.07684054076841942,-0.02559540815813044,0.12433361564350862,0.058080463256082425,-0.0016042474576647757,-0.004818484214240664,-0.003261942250384256,-0.051887362874189234,0.058770762529720334,0.08924509080897963
-0.11100294042683936,0.030019663134302467,-0.05515240436302082,9.618689208333333,-1.0460426666666667,-2.6477955,-0.0025777422858049765,0.0212799742605337,0.07684054076841942,-0.02559540815813044,0.12433361564350862,0.058080463256082425,-0.0055628956500496235,0.00029091814611327494,-0.007955175173114176,0.02978125405850964,0.0012778209953445935,0.04418390371008803
-0.09983283321407566,0.029321531433504733,-0.039095375244672985,9.561483749999999,-1.0378704583333334,-2.7376897916666665,-0.0025777422858049765,0.0212799742605337,0.07684054076841942,-0.02559540815813044,0.12433361564350862,0.058080463256082425,-0.005365589496574766,0.005295590737398251,-0.003467535472560314,-0.011064718181425447,-0.05214068307811407,0.05651815949107129
-0.08866272600131193,0.01884955592153876,-0.032114058236695664,9.586000375,-0.9234595416666666,-2.852100708333333,-0.0025777422858049765,0.0212799742605337,0.07684054076841942,-0.02559540815813044,0.12433361564350862,0.058080463256082425,-0.0033308359856162534,0.005052096329967004,-0.002646674074758268,-0.06855369610668577,-0.11372404763533005,0.02371352562667834
-0.08237954069413235,0.008377580409572781,-0.02652900463031381,9.724927916666667,-0.6864655000000001,-2.9011339583333333,-0.0025777422858049765,0.0212799742605337,0.07684054076841942,-0.02559540815813044,0.12433361564350862,0.058080463256082425,0.001462868233594401,0.008255231886969286,0.0018929715562132662,0.20777192981638176,-0.1932066337154097,-0.06966126101737011
-0.08517206749732328,-0.00767944870877505,-0.0307177948351002,9.749444541666666,-0.5475379583333333,-2.9174783749999995,-0.0025777422858049765,0.0212799742605337,0.07684054076841942,-0.02559540815813044,0.12433361564350862,0.058080463256082425,0.002497649402368916,0.005203175734354236,0.006639654682087066,-0.1178404638162587,-0.02356300287539704,-0.0014168970791355116
-0.09005898940290741,-0.01815142422074103,-0.0439822971502571,9.986438583333333,-0.4903325,-2.9174783749999995,-0.0025777422858049765,0.0212799742605337,0.07684054076841942,-0.02559540815813044,0.12433361564350862,0.058080463256082425,0.0022163349026016327,-0.0009710685520343478,0.00570138794765755,-0.01550999264614202,0.034299552341376154,-0.03441012189166538
-0.0942477796076938,-0.016755160819145562,-0.05515240436302082,10.019127416666667,-0.5475379583333333,-2.852100708333333,-0.0025777422858049765,0.0212799742605337,0.07684054076841942,-0.02559540815813044,0.12433361564350862,0.058080463256082425,-0.0021328896670169593,0.00014694506522210067,-2.6381505252321088e-05,-0.023715019319935877,0.021922728031517368,-0.034246888590183586
-0.09005898940290741,-0.016755160819145562,-0.05515240436302082,10.068160666666666,-0.5802267916666666,-2.7867230416666664,-0.0025777422858049765,0.0212799742605337,0.07684054076841942,-0.02559540815813044,0.12433361564350862,0.058080463256082425,-0.0019814527185739745,-0.006249707007320341,-0.0037676267897404996,0.02119064351675498,0.03825274280039065,-0.03430960071202442
-0.08656833089891874,-0.004886921905584123,-0.047472955654245766,10.027299625,-0.6456044583333332,-2.7213453750000003,-0.0025777422858049765,0.0212799742605337,0.07684054076841942,-0.02559540815813044,0.12433361564350862,0.058080463256082425,-0.005794399181123181,-0.001814707397948994,-0.007742407147542277,0.0581042346293872,0.025472525674165178,-0.04211734998708906
-0.0747000919853573,-0.0006981317007977319,-0.031415926535897934,9.912888708333332,-0.6864655000000001,-2.6396232916666666,-0.0025777422858049765,0.0212799742605337,0.07684054076841942,-0.02559540815813044,0.12433361564350862,0.058080463256082425,-0.005214315660321727,-0.002350082119780684,-0.008145060564402676,0.07856370398141062,0.004563939073745361,-0.03389497208713074
-0.06422811647339133,0.0041887902047863905,-0.0153588974175501,9.757616749999999,-0.6864655000000001,-2.574245625,-0.0025777422858049765,0.0212799742605337,0.07684054076841942,-0.02559540815813044,0.12433361564350862,0.058080463256082425,-0.004090330029235479,0.004064075006543029,-0.010077094477272432,0.07840714394978646,0.03265632095105901,-0.05001177214263512
-0.05585053606381855,-0.0041887902047863905,0.004886921905584123,9.602344791666665,-0.7436709583333333,-2.476179125,-0.0025777422858049765,0.0212799742605337,0.07684054076841942,-0.02559540815813044,0.12433361564350862,0.058080463256082425,-0.006222114800499574,0.0009680762576811269,-0.007332857679272752,-0.036085498208046476,0.01592355587922295,0.01905622534693305
-0.04328416544945937,-0.006283185307179587,0.019547687622336492,9.675894666666666,-0.7681875833333334,-2.5170401666666664,-0.0025777422858049765,0.0212799742605337,0.07684054076841942,-0.02559540815813044,0.12433361564350862,0.058080463256082425,-0.006203714988886776,-0.00016179386639175605,-0.00803797585861552,0.021170721764584656,-0.06638528326465314,-0.021531968126405083
-0.0307177948351002,-0.005585053606381855,0.03560471674068433,9.635033625,-0.6292600416666666,-2.476179125,-0.0025777422858049765,0.0212799742605337,0.07684054076841942,-0.02559540815813044,0.12433361564350862,0.058080463256082425,-0.0013177355782502751,0.0024593718818417373,-0.004045076285382919,0.07651449637504074,-0.12841669660890026,-0.015045369495653093
-0.028623399732707,-0.01117010721276371,0.0439822971502571,9.733100125,-0.5230213333333333,-2.574245625,-0.0025777422858049765,0.0212799742605337,0.07684054076841942,-0.02559540815813044,0.12433361564350862,0.058080463256082425,0.0004657917083951257,0.004211065920391916,-0.003338188087484299,-0.06053858246451406,0.006639900173424075,0.006709293669785508
-0.029321531433504733,-0.019547687622336492,0.050963614158234416,9.855683249999998,-0.5311935416666667,-2.5905900416666663,-0.0025777422858049765,0.0212799742605337,0.07684054076841942,-0.02559540815813044,0.12433361564350862,0.058080463256082425,0.0008893256735351609,0.0011290072404632856,0.002929044873029195,-0.10974832368035144,-0.013790484231451652,-0.0016666600455232743
-0.031415926535897934,-0.021642082724729686,0.04468042885105484,10.076332875,-0.4985047083333333,-2.5905900416666663,-0.0025777422858049765,0.0212799742605337,0.07684054076841942,-0.02559540815813044,0.12433361564350862,0.058080463256082425,0.005709522814291808,0.00014053354391171328,0.0012134177937611144,-0.04035820205955132,0.027481781570070238,0.006553074713766869
-0.04258603374866164,-0.021642082724729686,0.041887902047863905,10.158054958333333,-0.5475379583333333,-2.606934458333333,-0.0025777422858049765,0.0212799742605337,0.07684054076841942,-0.02559540815813044,0.12433361564350862,0.058080463256082425,0.004016279033855456,0.0017825766453544313,0.0012650998904734892,-0.027943511112535572,-0.00945111301121719,0.0023075929929680396
-0.050963614158234416,-0.02583087292951608,0.039793506945470715,10.215260416666666,-0.5230213333333333,-2.6151066666666667,-0.0025777422858049765,0.0212799742605337,0.07684054076841942,-0.02559540815813044,0.12433361564350862,0.058080463256082425,0.0038704760904371676,0.001482735603864243,0.0008362234471872142,-0.07301753144471192,-0.021450251524110862,0.03893139873982557
-0.05794493116621174,-0.028623399732707,0.03839724354387525,10.362360166666665,-0.4739880833333333,-2.69682875,-0.0025777422858049765,0.0212799742605337,0.07684054076841942,-0.02559540815813044,0.12433361564350862,0.058080463256082425,0.0024114668470351466,-0.003129459137093229,0.0030895253771023395,-0.040498839114859776,-0.06636949453637195,0.039092174416591685
-0.06283185307179587,-0.02234021442552742,0.032114058236695664,10.44408225,-0.3350605416666666,-2.778550833333333,-0.0025777422858049765,0.0212799742605337,0.07684054076841942,-0.02559540815813044,0.12433361564350862,0.058080463256082425,0.006398296404411365,0.003324024395400743,5.5764343192513494e-05,0.029171587305873378,-0.0007420934106482278,0.018669109339731326
-0.07609635538695278,-0.028623399732707,0.032114058236695664,10.386876791666666,-0.32688833333333334,-2.8194118749999997,-0.0025777422858049765,0.0212799742605337,0.07684054076841942,-0.02559540815813044,0.12433361564350862,0.058080463256082425,0.008439539700090095,-0.0012006271734903366,0.0065755365807502525,0.045498314279671215,-0.008528332551456224,-0.014193439292489585
-0.09285151620609833,-0.02652900463031381,0.01884955592153876,10.2969825,-0.3023717083333333,-2.7948952499999997,-0.0025777422858049765,0.0212799742605337,0.07684054076841942,-0.02559540815813044,0.12433361564350862,0.058080463256082425,0.006759460448383755,0.0038400026100569177,0.0005836790567971181,0.0985694820930086,0.020060338889223855,-0.05094482547048629
-0.10611601852125524,-0.03420845333908886,0.01815142422074103,10.100849499999999,-0.3350605416666666,-2.69682875,-0.0025777422858049765,0.0212799742605337,0.07684054076841942,-0.02559540815813044,0.12433361564350862,0.058080463256082425,0.005489713512628264,0.0031349086956722195,-0.0012638558289439312,0.11004488545639506,-0.09130861279335116,-0.0787726101518998
-0.11728612573401893,-0.04049163864626844,0.020943951023931952,10.117193916666666,-0.3105439166666667,-2.680484333333333,-0.0025777422858049765,0.0212799742605337,0.07684054076841942,-0.02559540815813044,0.12433361564350862,0.058080463256082425,0.0034134089277354325,0.003946799644066567,-0.003636562437208798,0.012850701944013629,0.048774960315415845,-0.010457022648017168
-0.12356931104119852,-0.048869219055841226,0.027925268031909273,10.092677291666664,-0.4004382083333333,-2.6641399166666666,-0.0025777422858049765,0.0212799742605337,0.07684054076841942,-0.02559540815813044,0.12433361564350862,0.058080463256082425,0.005747598793136818,-0.001492012841957597,-0.00503854616132641,0.004473309868843434,-0.024945171547868215,-0.010504595795077126
-0.13543754995475996,-0.04537856055185257,0.03769911184307752,10.084505083333333,-0.34323275000000003,-2.6477955,-0.0025777422858049765,0.0212799742605337,0.07684054076841942,-0.02559540815813044,0.12433361564350862,0.058080463256082425,0.005328181506869095,0.0008829308498127795,-0.007601544167473711,0.08204017024603018,0.019766251011227164,-0.055570709524309224
-0.14590952546672595,-0.047472955654245766,0.05305800926062762,9.921060916666667,-0.3759215833333333,-2.5415567916666664,-0.0025777422858049765,0.0212799742605337,0.07684054076841942,-0.02559540815813044,0.12433361564350862,0.058080463256082425,0.003195525135163211,0.0004494321724028378,-0.007793528534521393,-0.02821426509989317,0.03976370514723027,-0.010581318359702475
-0.15219271077390556,-0.04817108735504349,0.06911503837897544,9.978266375,-0.4494714583333333,-2.5252123749999997,-0.0025777422858049765,0.0212799742605337,0.07684054076841942,-0.02559540815813044,0.12433361564350862,0.058080463256082425,0.0012352321338454238,0.0015725100982878868,-0.010772150008092745,0.05761981574441408,0.002514980640753489,-0.014832140767078486
-0.15498523757709648,-0.05166174585903216,0.09005898940290741,9.863855458333333,-0.4494714583333333,-2.5006957499999998,-0.0025777422858049765,0.0212799742605337,0.07684054076841942,-0.02559540815813044,0.12433361564350862,0.058080463256082425,0.0024660768617924623,-0.004819650094102332,-0.009656542849371052,0.0330346799149265,0.010329460729824158,0.0017396005304643992
-0.15987215948268058,-0.041887902047863905,0.11030480872604163,9.798477791666667,-0.465815875,-2.5088679583333335,-0.0025777422858049765,0.0212799742605337,0.07684054076841942,-0.02559540815813044,0.12433361564350862,0.058080463256082425,0.0012861565707934445,0.0013904982228196872,-0.004987103102363758,0.192369179308878,0.05073544126877501,-0.04723307410261274
-0.1626646862858715,-0.04468042885105484,0.12007865253720987,9.414383999999998,-0.563882375,-2.4189736666666666,-0.0025777422858049765,0.0212799742605337,0.07684054076841942,-0.02559540815813044,0.12433361564350862,0.058080463256082425,0.0007129429487148304,0.0038971241459019295,0.008605376115998408,0.024638488320839765,0.0018759386957209342,0.06694873661153283
-0.16406094968746698,-0.05235987755982988,0.10262536001726656,9.36535075,-0.563882375,-2.557901208333333,-0.0025777422858049765,0.0212799742605337,0.07684054076841942,-0.02559540815813044,0.12433361564350862,0.058080463256082425,-0.00025255307352176423,0.003930274093880266,0.003162912922424978,0.028958683257743888,0.014591755785680699,0.013821018494728443
-0.16336281798666924,-0.06073745796940267,0.09634217471008698,9.308145291666667,-0.5883989999999999,-2.5905900416666663,-0.0025777422858049765,0.0212799742605337,0.07684054076841942,-0.02559540815813044,0.12433361564350862,0.058080463256082425,-0.0027786543389290907,0.004246629673575599,0.003387076118657694,0.10491332407181272,-0.10128971389244372,-0.05411978570594721
-0.15777776438028737,-0.06911503837897544,0.09005898940290741,9.36535075,-0.5802267916666666,-2.672312125,-0.0025777422858049765,0.0212799742605337,0.07684054076841942,-0.02559540815813044,0.12433361564350862,0.058080463256082425,-0.00251283334317475,0.0032959943465858334,0.002555219532886835,0.11460037566724937,0.03516781434386003,-0.09699573515527704
-0.15289084247470325,-0.07539822368615504,0.08447393579652555,9.136528916666666,-0.6456044583333332,-2.4843513333333336,-0.0025777422858049765,0.0212799742605337,0.07684054076841942,-0.02559540815813044,0.12433361564350862,0.058080463256082425,-0.0006636875619973012,0.008783280736778129,0.0019974234364345173,0.1145272941784227,-0.013855017307653962,-0.11751695903901972
-0.1514945790731078,-0.09285151620609833,0.08098327729253688,8.907707083333333,-0.612915625,-2.2555295,-0.0025777422858049765,0.0212799742605337,0.07684054076841942,-0.02559540815813044,0.12433361564350862,0.058080463256082425,-0.003901231008394863,0.00858054901721867,-0.004274499706207343,0.0859751398372601,0.05120944620268056,-0.011672390073906021
-0.143116998663535,-0.11030480872604163,0.08936085770210968,8.736090708333332,-0.7109821249999999,-2.239185083333333,-0.0025777422858049765,0.0212799742605337,0.07684054076841942,-0.02559540815813044,0.12433361564350862,0.058080463256082425,-0.006814734434357348,0.0003321810317089173,-0.00011203512899780813,-0.15535378776253,0.03899634441689769,0.02462114943020597
-0.12985249634837812,-0.11100294042683936,0.09005898940290741,9.046634625,-0.784532,-2.2963905416666663,-0.0025777422858049765,0.0212799742605337,0.07684054076841942,-0.02559540815813044,0.12433361564350862,0.058080463256082425,-0.00609238834288205,-0.0010538778398705663,-0.004609192658163326,-0.008198447642010944,0.00196574591183561,0.012730360793133132
-0.11728612573401893,-0.10890854532444616,0.0991347015132779,9.062979041666667,-0.784532,-2.3290793749999996,-0.0025777422858049765,0.0212799742605337,0.07684054076841942,-0.02559540815813044,0.12433361564350862,0.058080463256082425,-0.003679057682762197,-0.003402913395101301,-0.00021396935313641315,-0.04493952092160525,-0.026795126244972427,0.00040596027580919875
-0.11030480872604163,-0.10192722831646883,0.09983283321407566,9.152873333333332,-0.7273265416666667,-2.3372515833333334,-0.0025777422858049765,0.0212799742605337,0.07684054076841942,-0.02559540815813044,0.12433361564350862,0.058080463256082425,-0.006752121065604441,-0.002411089960378716,-0.003342918987289824,0.10215089389780464,0.07536881966073479,-0.003334185015437454
-0.09704030641088471,-0.09704030641088471,0.10611601852125524,8.948568125,-0.8744262916666666,-2.3372515833333334,-0.0025777422858049765,0.0212799742605337,0.07684054076841942,-0.02559540815813044,0.12433361564350862,0.058080463256082425,-0.012773774128722923,-0.0029371533075420587,-0.004792029983059949,0.016353121219011592,0.07490444185760692,0.04965255973154076
-0.07120943348136866,-0.09145525280450287,0.11588986233242347,8.915879291666666,-1.0215260416666667,-2.4434902916666665,-0.0025777422858049765,0.0212799742605337,0.07684054076841942,-0.02559540815813044,0.12433361564350862,0.058080463256082425,-0.01340950799337048,-0.0005149234668597258,-0.008109234174670622,0.1389269037936342,0.0744771520330701,0.013320703610924791
-0.04468042885105484,-0.09075712110370514,0.1319468914507713,8.638024208333333,-1.1686257916666667,-2.476179125,-0.0025777422858049765,0.0212799742605337,0.07684054076841942,-0.02559540815813044,0.12433361564350862,0.058080463256082425,-0.015869534855537947,0.007601088640396774,-0.0037982412732034416,-0.012516875611529905,-0.027906829868015272,0.07043089513671069
-0.012566370614359173,-0.1054178868204575,0.13962634015954636,8.662540833333333,-1.1114203333333332,-2.623278875,-0.0025777422858049765,0.0212799742605337,0.07684054076841942,-0.02559540815813044,0.12433361564350862,0.058080463256082425,-0.007652147852798963,0.0045929269745038125,-0.0031822126547645896,0.1900321712894077,-0.2663742635384499,-0.09620533042557455
0.0027925268031909274,-0.114493598930828,0.1466076571675237,8.597163166666666,-0.8008764166666666,-2.672312125,-0.0025777422858049765,0.0212799742605337,0.07684054076841942,-0.02559540815813044,0.12433361564350862,0.058080463256082425,-0.005616042483646295,0.005549896535604344,-0.0016608078781345445,-0.09022185947474844,-0.06938660615447433,0.0211222503475668
0.013962634015954637,-0.12566370614359174,0.15009831567151233,8.77695175,-0.661948875,-2.7213453750000003,-0.0025777422858049765,0.0212799742605337,0.07684054076841942,-0.02559540815813044,0.12433361564350862,0.058080463256082425,-0.003550199347169016,0.008581026866519317,0.0014584847937333064,0.024106960975184857,0.04482406831139718,-0.0244691846410212
0.020943951023931952,-0.143116998663535,0.1466076571675237,8.7279185,-0.7518431666666666,-2.680484333333333,-0.0025777422858049765,0.0212799742605337,0.07684054076841942,-0.02559540815813044,0.12433361564350862,0.058080463256082425,-0.004469764194152207,0.004164652318265387,0.009101954735580734,-0.09852500123649703,-0.03245073397420716,0.01224563494021802
0.030019663134302467,-0.1514945790731078,0.12845623294678266,8.9240515,-0.6864655000000001,-2.7131731666666665,-0.0025777422858049765,0.0212799742605337,0.07684054076841942,-0.02559540815813044,0.12433361564350862,0.058080463256082425,-0.003913974826620863,0.0011692590325530587,0.0028613559954918165,0.0198964381524001,-0.06094990565273309,-0.032989908467596
0.03769911184307752,-0.15428710587629874,0.1228711793404008,8.883190458333333,-0.563882375,-2.655967708333333,-0.0025777422858049765,0.0212799742605337,0.07684054076841942,-0.02559540815813044,0.12433361564350862,0.058080463256082425,-0.003529037373051149,0.0028367554886796053,0.003951054818140183,-0.11487646173680333,-0.06903929883615195,-0.020689920353662652
0.04468042885105484,-0.15917402778188286,0.11519173063162574,9.112012291666666,-0.42495483333333334,-2.623278875,-0.0025777422858049765,0.0212799742605337,0.07684054076841942,-0.02559540815813044,0.12433361564350862,0.058080463256082425,0.005424452711380782,0.0007729766050358613,0.005797856166879089,0.11001531812770918,-0.14650156334978762,-0.14757987929160074
0.03420845333908886,-0.16126842288427606,0.10332349171806432,8.891362666666666,-0.13075533333333333,-2.3372515833333334,-0.0025777422858049765,0.0212799742605337,0.07684054076841942,-0.02559540815813044,0.12433361564350862,0.058080463256082425,0.010126103502107705,0.011410722424828998,-0.002386330479966706,0.036577972858741425,-0.2686342961172791,-0.15600761258450474
0.013962634015954637,-0.18360863730980345,0.10821041362364843,8.817812791666666,0.40861041666666664,-2.0348798749999997,-0.0025777422858049765,0.0212799742605337,0.07684054076841942,-0.02559540815813044,0.12433361564350862,0.058080463256082425,0.01803228691383758,0.006535881363830928,-0.0034323486206372152,-0.03278307045100663,-0.1585845561480879,-0.14814132205040662
-0.02234021442552742,-0.19687313962496036,0.11519173063162574,8.883190458333333,0.7273265416666667,-1.7488525833333333,-0.0025777422858049765,0.0212799742605337,0.07684054076841942,-0.02559540815813044,0.12433361564350862,0.058080463256082425,0.018986137918505747,0.008746697281672397,0.00043512971972839025,-0.14299155703161867,-0.023436225739584527,-0.07105872590427065
-0.060039326268604934,-0.21432643214490363,0.114493598930828,9.16921775,0.7763597916666666,-1.61809725,-0.0025777422858049765,0.0212799742605337,0.07684054076841942,-0.02559540815813044,0.12433361564350862,0.058080463256082425,0.014859230362927864,-0.0004319110603885838,-0.0004249626148810397,-0.1922979568709281,0.10716736268271668,0.02263553312830815
-0.08936085770210968,-0.21362830044410594,0.11519173063162574,9.553311541666666,0.563882375,-1.6753027083333332,-0.0025777422858049765,0.0212799742605337,0.07684054076841942,-0.02559540815813044,0.12433361564350862,0.058080463256082425,0.0076699230729942785,-0.008326501531304015,0.00043795541548582664,-0.14331499870092168,0.2097383010453776,0.05939249094596784
-0.1054178868204575,-0.19687313962496036,0.114493598930828,9.839338833333333,0.14709974999999997,-1.8060580416666667,-0.0025777422858049765,0.0212799742605337,0.07684054076841942,-0.02559540815813044,0.12433361564350862,0.058080463256082425,-0.00023010419785424673,-0.013419287512189982,-0.0020429410729359623,0.06506486242245908,0.18500275136500102,0.09247535498001794
-0.10471975511965977,-0.17034413499464657,0.11868238913561441,9.7085835,-0.220649625,-2.0021910416666664,-0.0025777422858049765,0.0212799742605337,0.07684054076841942,-0.02559540815813044,0.12433361564350862,0.058080463256082425,-0.00626921088838612,-0.015846160631466873,-0.0008791700071514194,0.11433767032951712,0.054450485645613805,0.07281418748059693
-0.09215338450530061,-0.13892820845874865,0.12077678423800758,9.479761666666667,-0.32688833333333334,-2.157463,-0.0025777422858049765,0.0212799742605337,0.07684054076841942,-0.02559540815813044,0.12433361564350862,0.058080463256082425,-0.005054599188522611,-0.004843147547844746,-0.00752152822449226,0.2980908075011297,0.029579977142387713,0.012472384068855511
-0.08237954069413235,-0.1291543646475804,0.13543754995475996,8.883190458333333,-0.3840937916666667,-2.190151833333333,-0.0025777422858049765,0.0212799742605337,0.07684054076841942,-0.02559540815813044,0.12433361564350862,0.058080463256082425,-0.0005181700150700038,0.008624648988844182,-0.007163712048159121,0.13454114409923823,0.008754991176971625,0.1144636294487015
-0.08098327729253688,-0.14590952546672595,0.1494001839707146,8.613507583333332,-0.4004382083333333,-2.427145875,-0.0025777422858049765,0.0212799742605337,0.07684054076841942,-0.02559540815813044,0.12433361564350862,0.058080463256082425,-0.0010112175237684006,0.009308031609576215,-0.00875381438094403,0.0772597954869778,0.008760502522987492,0.07745001835991724
-0.07888888219014369,-0.1647590813882647,0.16755160819145562,8.458235625,-0.416782625,-2.5905900416666663,-0.0025777422858049765,0.0212799742605337,0.07684054076841942,-0.02559540815813044,0.12433361564350862,0.058080463256082425,-0.0015881280624129989,0.010283651788131181,-0.005282307697532342,-0.04168473694404037,0.01249269584304278,0.0727956887223214
-0.07539822368615504,-0.1850049007113989,0.1780235837034216,8.539957708333333,-0.44129925,-2.7458620000000002,-0.0025777422858049765,0.0212799742605337,0.07684054076841942,-0.02559540815813044,0.12433361564350862,0.058080463256082425,0.0020373394318220373,0.006931482217908585,0.00029657052521685716,-0.04991402266213753,0.06122624873020761,0.023563829594685344
-0.07958701389094143,-0.19896753472735357,0.17732545200262387,8.638024208333333,-0.563882375,-2.803067458333333,-0.0025777422858049765,0.0212799742605337,0.07684054076841942,-0.02559540815813044,0.12433361564350862,0.058080463256082425,-0.002824725799330768,0.0014550234842242167,0.0002662992279518313,0.23897877186810648,-0.22732688320872582,-0.2840959994816646
-0.07400196028455958,-0.20245819323134223,0.17732545200262387,8.97308475,-0.6210878333333334,-2.8766173333333334,-0.0025777422858049765,0.0212799742605337,0.07684054076841942,-0.02559540815813044,0.12433361564350862,0.058080463256082425,-0.0022563890704835423,-0.0037601555955819317,-0.00045576512708472145,-0.08283880455039272,-0.004159689833706621,-0.030073534697740763
-0.06911503837897544,-0.19477874452256716,0.17872171540421936,9.136528916666666,-0.612915625,-2.827584083333333,-0.0025777422858049765,0.0212799742605337,0.07684054076841942,-0.02559540815813044,0.12433361564350862,0.058080463256082425,0.00014508107863131,-0.003565263066154961,0.00021111739604053848,-0.12342313016496483,-0.05333280903302569,0.006804677426618111
-0.06981317007977318,-0.18779742751458986,0.1780235837034216,9.381695166666667,-0.5066769166666666,-2.852100708333333,-0.0025777422858049765,0.0212799742605337,0.07684054076841942,-0.02559540815813044,0.12433361564350862,0.058080463256082425,0.0009779612742299689,-0.010528582633790914,0.00032515578095045045,-0.1109785403523685,-0.09832417505952218,0.019001048271306883
-0.07120943348136866,-0.1668534764906579,0.17732545200262387,9.602344791666665,-0.3105439166666667,-2.9011339583333333,-0.0025777422858049765,0.0212799742605337,0.07684054076841942,-0.02559540815813044,0.12433361564350862,0.058080463256082425,0.0007967204186755633,-0.00456806119082352,0.0019994231384371634,-0.07425070964392716,-0.020642192716100044,0.031771348286206966
-0.07330382858376185,-0.15707963267948966,0.17383479349863523,9.749444541666666,-0.269682875,-2.974683833333333,-0.0025777422858049765,0.0212799742605337,0.07684054076841942,-0.02559540815813044,0.12433361564350862,0.058080463256082425,0.003480886028563345,-0.005221828385835691,0.003501890506853525,-0.025064817216603943,-0.008094676048913977,-0.004690712633452289
-0.08028514559173915,-0.14730578886832138,0.1668534764906579,9.798477791666667,-0.2533384583333333,-2.974683833333333,-0.0025777422858049765,0.0212799742605337,0.07684054076841942,-0.02559540815813044,0.12433361564350862,0.058080463256082425,0.003292731525010522,0.002440418153240311,0.007139632228162198,-0.04150756197872842,-0.024240864684735325,0.007588542151207652
-0.08656833089891874,-0.15219271077390556,0.15219271077390556,9.880199875,-0.20430520833333332,-2.999200458333333,-0.0025777422858049765,0.0212799742605337,0.07684054076841942,-0.02559540815813044,0.12433361564350862,0.058080463256082425,0.005777179416031015,-0.0006119759377318711,0.009228125342151724,-0.012827776023115965,-0.05248268175219839,0.027977873341728965
-0.09773843811168245,-0.15079644737231007,0.1340412865531645,9.9047165,-0.0980665,-3.0645781249999997,-0.0025777422858049765,0.0212799742605337,0.07684054076841942,-0.02559540815813044,0.12433361564350862,0.058080463256082425,0.002414092241733542,0.0016186584145793561,0.009329930333286666,-0.041341084456184056,0.0012969828364187991,-0.009065299611238049
-0.10262536001726656,-0.15428710587629874,0.11519173063162574,9.986438583333333,-0.0980665,-3.0564059166666664,-0.0025777422858049765,0.0212799742605337,0.07684054076841942,-0.02559540815813044,0.12433361564350862,0.058080463256082425,0.005628294009043904,-0.002430687401136337,0.008693533960173262,-0.04559647756887064,0.05078049992646397,0.048326450982065144
-0.114493598930828,-0.1494001839707146,0.09773843811168245,10.076332875,-0.196133,-3.162644625,-0.0025777422858049765,0.0212799742605337,0.07684054076841942,-0.02559540815813044,0.12433361564350862,0.058080463256082425,0.0021145612854991573,-0.005307827399772929,0.0031306936493782755,0.2764161282153341,-0.12802313186701209,-0.20882866468554873
-0.11868238913561441,-0.13892820845874865,0.09215338450530061,10.084505083333333,-0.2778550833333333,-3.18716125,-0.0025777422858049765,0.0212799742605337,0.07684054076841942,-0.02559540815813044,0.12433361564350862,0.058080463256082425,0.001385617605611997,-0.006782273103288878,0.0010311933484323209,0.04877026115698154,0.07586331140153794,-0.008526935672992201
-0.12077678423800758,-0.124965574442794,0.09005898940290741,9.986438583333333,-0.42495483333333334,-3.178989041666666,-0.0025777422858049765,0.0212799742605337,0.07684054076841942,-0.02559540815813044,0.12433361564350862,0.058080463256082425,-0.001831605762205153,-0.0037732627878650435,-0.006072394629896138,0.07726380997595522,0.055314956767477684,-0.00816519911351062
-0.11728612573401893,-0.11798425743481668,0.10192722831646883,9.831166624999998,-0.5311935416666667,-3.170816833333333,-0.0025777422858049765,0.0212799742605337,0.07684054076841942,-0.02559540815813044,0.12433361564350862,0.058080463256082425,-0.00028437511307843275,-0.006752394631756123,-0.0012432917177661418,0.003581872254043201,0.030614757147161,0.004141028731720584
-0.1165879940332212,-0.10402162341886204,0.10471975511965977,9.822994416666667,-0.5883989999999999,-3.18716125,-0.0025777422858049765,0.0212799742605337,0.07684054076841942,-0.02559540815813044,0.12433361564350862,0.058080463256082425,-0.002080741768138998,-0.0008906897886980604,-0.004210659138895444,0.11421473837130361,-0.030819419485255763,0.004592700308793543
-0.11239920382843484,-0.10262536001726656,0.11309733552923257,9.594172583333334,-0.5230213333333333,-3.2035056666666666,-0.0025777422858049765,0.0212799742605337,0.07684054076841942,-0.02559540815813044,0.12433361564350862,0.058080463256082425,-0.0025372454024314064,-0.003862587777455725,-0.0003363464619584128,0.020282544724761337,0.038412751023836296,0.021121587675116883
-0.1075122819228507,-0.09494591130849153,0.114493598930828,9.553311541666666,-0.5965712083333333,-3.2525389166666665,-0.0025777422858049765,0.0212799742605337,0.07684054076841942,-0.02559540815813044,0.12433361564350862,0.058080463256082425,-0.0012997896813728381,0.0012062909141660888,-0.0009191995676694868,0.028350435732653185,0.013817582669119114,-0.0035563351635418006
-0.1054178868204575,-0.09773843811168245,0.11588986233242347,9.496106083333332,-0.6210878333333334,-3.2525389166666665,-0.0025777422858049765,0.0212799742605337,0.07684054076841942,-0.02559540815813044,0.12433361564350862,0.058080463256082425,-0.0033040361440415432,-0.0037924488635645978,0.0012530257200024063,-0.020692554798191855,-0.043329327809017375,0.000730172073158299
-0.09843656981248018,-0.09005898940290741,0.11379546723003027,9.536967125,-0.5311935416666667,-3.260711125,-0.0025777422858049765,0.0212799742605337,0.07684054076841942,-0.02559540815813044,0.12433361564350862,0.058080463256082425,-0.0013631131616509487,0.001955188782980307,-0.002790154992505241,-0.05335056142958942,0.001534243711288396,0.008918888850279558
-0.09564404300928926,-0.09354964790689606,0.11938052083641214,9.643205833333333,-0.5311935416666667,-3.2852277500000002,-0.0025777422858049765,0.0212799742605337,0.07684054076841942,-0.02559540815813044,0.12433361564350862,0.058080463256082425,0.0019218742888184198,-0.0018762958468880443,0.002676227193396585,-0.1145033345165198,-0.035382657110731214,0.0007169173722593708
-0.0991347015132779,-0.09005898940290741,0.11379546723003027,9.872027666666666,-0.45764366666666667,-3.293399958333333,-0.0025777422858049765,0.0212799742605337,0.07684054076841942,-0.02559540815813044,0.12433361564350862,0.058080463256082425,-0.0014580474799616285,9.264677585031435e-05,0.004054509805179818,-0.11042517347416499,-0.010523205002437915,0.008883369996947357
-0.09634217471008698,-0.09005898940290741,0.10611601852125524,10.092677291666664,-0.43312704166666666,-3.317916583333333,-0.0025777422858049765,0.0212799742605337,0.07684054076841942,-0.02559540815813044,0.12433361564350862,0.058080463256082425,0.0031448277482268995,-0.007175057718923685,0.008998093284758566,0.12297699385684172,-0.20184843725409077,-0.16378000715878066
-0.10262536001726656,-0.07609635538695278,0.0879645943005142,10.386876791666666,-0.392266,-3.415983083333333,-0.0025777422858049765,0.0212799742605337,0.07684054076841942,-0.02559540815813044,0.12433361564350862,0.058080463256082425,0.0009871355203651653,-0.0037748279541185443,0.006699218938676576,-0.07343612764282016,0.010519445964815367,0.0008922678683923967
-0.10471975511965977,-0.06911503837897544,0.0747000919853573,10.533976541666666,-0.40861041666666664,-3.4241552916666667,-0.0025777422858049765,0.0212799742605337,0.07684054076841942,-0.02559540815813044,0.12433361564350862,0.058080463256082425,0.00237348400407939,-0.0023284885196745305,0.013142664987636289,-0.11451105191745657,-0.01734844053283959,0.06243646588940311
-0.1096066770252439,-0.0635299847725936,0.048869219055841226,10.762798375,-0.367749375,-3.5549106249999998,-0.0025777422858049765,0.0212799742605337,0.07684054076841942,-0.02559540815813044,0.12433361564350862,0.058080463256082425,0.003488952428192291,-0.007142494750270956,0.006936599096960381,0.016646577114209228,0.02830687414159109,0.0013813614410766737
-0.11588986233242347,-0.04956735075663895,0.03490658503988659,10.730109541666666,-0.416782625,-3.563082833333333,-0.0025777422858049765,0.0212799742605337,0.07684054076841942,-0.02559540815813044,0.12433361564350862,0.058080463256082425,0.0015591525939031748,-0.003925635260106724,0.01070920741828025,0.0002640890278524747,0.065303685845519,0.013890267439074882
-0.11938052083641214,-0.041887902047863905,0.013264502315156905,10.730109541666666,-0.53936575,-3.5957716666666664,-0.0025777422858049765,0.0212799742605337,0.07684054076841942,-0.02559540815813044,0.12433361564350862,0.058080463256082425,0.0014749864059780042,-0.0031567151817563617,0.007706071396575098,0.06983894327151453,0.020928826911749736,-0.03887805786771909
-0.12217304763960307,-0.03560471674068433,-0.0013962634015954637,10.591182,-0.5720545833333333,-3.5222217916666665,-0.0025777422858049765,0.0212799742605337,0.07684054076841942,-0.02559540815813044,0.12433361564350862,0.058080463256082425,-0.0001637874332255194,-0.0037957717025303337,0.005254481081287513,0.02905648329995281,0.009170247189076566,0.001968307001137905
-0.12217304763960307,-0.027925268031909273,-0.012566370614359173,10.533976541666666,-0.5802267916666666,-3.530394,-0.0025777422858049765,0.0212799742605337,0.07684054076841942,-0.02559540815813044,0.12433361564350862,0.058080463256082425,-0.0005213245033000914,0.0011631138667200207,-0.0008074067041750889,0.07018605728864873,0.013079592824128409,-0.01013839212771282
-0.12077678423800758,-0.0307177948351002,-0.01117010721276371,10.395049,-0.5965712083333333,-3.514049583333333,-0.0025777422858049765,0.0212799742605337,0.07684054076841942,-0.02559540815813044,0.12433361564350862,0.058080463256082425,-0.0010335840102625377,-0.002969105552307809,-0.0005661370498487732,-0.02412387798570826,0.02975141589980768,0.026718753697370385
-0.11868238913561441,-0.024434609527920613,-0.009773843811168246,10.44408225,-0.6456044583333332,-3.571255041666667,-0.0025777422858049765,0.0212799742605337,0.07684054076841942,-0.02559540815813044,0.12433361564350862,0.058080463256082425,-0.0015187157576330135,-0.003348787801353656,-0.007886085602568288,0.2444378662113205,-0.1293921681917551,-0.20253755577384008
-0.11519173063162574,-0.01815142422074103,0.006981317007977318,10.370532375,-0.7273265416666667,-3.530394,-0.0025777422858049765,0.0212799742605337,0.07684054076841942,-0.02559540815813044,0.12433361564350862,0.058080463256082425,-0.002129965429623293,-0.003675711935324269,-0.006016289611479223,-0.007496477797750176,0.0043842855775269515,0.0065784842782798435
-0.11100294042683936,-0.01117010721276371,0.01884955592153876,10.386876791666666,-0.7273265416666667,-3.546738416666667,-0.0025777422858049765,0.0212799742605337,0.07684054076841942,-0.02559540815813044,0.12433361564350862,0.058080463256082425,-0.0037309438175975483,-0.0016823020786354626,-0.007611725171656676,0.05785257212620546,0.04865449287825383,-0.01773985193039548
-0.10402162341886204,-0.00767944870877505,0.03420845333908886,10.272465875,-0.8172208333333333,-3.514049583333333,-0.0025777422858049765,0.0212799742605337,0.07684054076841942,-0.02559540815813044,0.12433361564350862,0.058080463256082425,-0.0061075183948078905,-0.0037912585256198506,-0.009361660032788655,-0.06064518594180524,-0.016982324245065045,0.002799717187139434
-0.09145525280450287,0.0,0.05305800926062762,10.395049,-0.7763597916666666,-3.5222217916666665,-0.0025777422858049765,0.0212799742605337,0.07684054076841942,-0.02559540815813044,0.12433361564350862,0.058080463256082425,-0.0033832415348111805,-0.002658082048399409,-0.011254283910451928,0.06617329894777225,-0.02570842329151472,0.0028572956453324127
-0.08447393579652555,0.005585053606381855,0.07539822368615504,10.264293666666665,-0.7191543333333333,-3.530394,-0.0025777422858049765,0.0212799742605337,0.07684054076841942,-0.02559540815813044,0.12433361564350862,0.058080463256082425,0.00019859996104042672,0.0003962433178518554,-0.0008201060459264213,-0.10564518320912229,-0.07126113345221152,-0.005008794146045307
-0.08517206749732328,0.0041887902047863905,0.0767944870877505,10.476771083333333,-0.5720545833333333,-3.5222217916666665,-0.0025777422858049765,0.0212799742605337,0.07684054076841942,-0.02559540815813044,0.12433361564350862,0.058080463256082425,0.002229600940840187,0.0009762953320819985,-0.00324023447729789,-0.00741515966426033,0.01871621237372947,-0.021578733975779325
-0.09005898940290741,0.0027925268031909274,0.08377580409572781,10.4931155,-0.6047434166666666,-3.4813607499999994,-0.0025777422858049765,0.0212799742605337,0.07684054076841942,-0.02559540815813044,0.12433361564350862,0.058080463256082425,0.0012093212608088432,0.0009107338037724005,0.0016557282662132073,-0.06896526338560822,0.022920540313177435,0.04796251440297731
-0.09215338450530061,0.0006981317007977319,0.08028514559173915,10.632043041666666,-0.6456044583333332,-3.5794272499999997,-0.0025777422858049765,0.0212799742605337,0.07684054076841942,-0.02559540815813044,0.12433361564350862,0.058080463256082425,0.0005450122814225311,-0.0008024561442918222,0.0018159645201668434,-0.007422689324130879,0.04744171949184047,0.023351429449515917
-0.09285151620609833,0.0020943951023931952,0.0767944870877505,10.648387458333334,-0.73549875,-3.6284604999999996,-0.0025777422858049765,0.0212799742605337,0.07684054076841942,-0.02559540815813044,0.12433361564350862,0.058080463256082425,-0.0012640002373689738,-0.005405743008323241,0.0028894575206081835,-0.06462700838621413,-0.013825119956879663,0.015442855932106717
-0.09075712110370514,0.012566370614359173,0.07120943348136866,10.779142791666665,-0.7028099166666667,-3.6611493333333334,-0.0025777422858049765,0.0212799742605337,0.07684054076841942,-0.02559540815813044,0.12433361564350862,0.058080463256082425,0.00018889882837778616,-0.0026868097149110163,3.032862131950672e-05,0.14958638190415213,-0.14606425613178442,-0.15462542043653682
-0.09075712110370514,0.017453292519943295,0.07120943348136866,10.713765125,-0.7109821249999999,-3.6366327083333334,-0.0025777422858049765,0.0212799742605337,0.07684054076841942,-0.02559540815813044,0.12433361564350862,0.058080463256082425,0.0019205558158485962,-0.005275156220928875,0.005072567106845182,-0.00723587461795092,-0.01767426812917799,-0.012853582322281338
-0.09494591130849153,0.027925268031909273,0.0614355896702004,10.730109541666666,-0.6701210833333332,-3.6121160833333334,-0.0025777422858049765,0.0212799742605337,0.07684054076841942,-0.02559540815813044,0.12433361564350862,0.058080463256082425,0.0022341227231899826,0.00032774195390959817,-0.0019204556074290638,0.08669660508186844,0.06423382544094024,-0.06183058649694857
-0.0991347015132779,0.02722713633111154,0.06562437987498679,10.558493166666667,-0.7927042083333332,-3.489532958333333,-0.0025777422858049765,0.0212799742605337,0.07684054076841942,-0.02559540815813044,0.12433361564350862,0.058080463256082425,0.002489830982723277,-0.0015455001650389571,-0.0006625008733316612,-0.031792710398408884,0.019209611824282467,-0.020838272135962836
-0.10402162341886204,0.0307177948351002,0.06702064327658225,10.623870833333331,-0.8253930416666666,-3.4486719166666666,-0.0025777422858049765,0.0212799742605337,0.07684054076841942,-0.02559540815813044,0.12433361564350862,0.058080463256082425,0.0023876918091961705,-0.0005729291925116707,-0.0030685006505769795,0.07446143707152517,0.03552339851548793,-0.061865264767078924
-0.10890854532444616,0.031415926535897934,0.07260569688296412,10.476771083333333,-0.8907707083333333,-3.3260887916666664,-0.0025777422858049765,0.0212799742605337,0.07684054076841942,-0.02559540815813044,0.12433361564350862,0.058080463256082425,0.0012148184582818832,0.0013229444373892682,0.0012980508271193973,-0.04412423145109831,-0.038215457001232876,-0.07400907116546714
-0.1117010721276371,0.029321531433504733,0.07051130178057091,10.566665374999998,-0.809048625,-3.178989041666666,-0.0025777422858049765,0.0212799742605337,0.07684054076841942,-0.02559540815813044,0.12433361564350862,0.058080463256082425,0.0046777254792164805,-0.0035426839357529855,-0.006632511439216239,0.09497104108472042,-0.03423953594658159,-0.09023283163576264
-0.12077678423800758,0.03630284844148206,0.08377580409572781,10.378704583333333,-0.73549875,-2.999200458333333,-0.0025777422858049765,0.0212799742605337,0.07684054076841942,-0.02559540815813044,0.12433361564350862,0.058080463256082425,0.003293395699191692,0.004129198252271378,-0.004287223865584413,-0.027737726646053465,-0.059031218418877374,-0.04947163871785526
-0.1270599695451872,0.027925268031909273,0.09215338450530061,10.435910041666666,-0.612915625,-2.9011339583333333,-0.0025777422858049765,0.0212799742605337,0.07684054076841942,-0.02559540815813044,0.12433361564350862,0.058080463256082425,0.005654883114141831,0.0027802613954135366,-0.003456023125730738,-0.011512883761686413,-0.03464493187749849,-0.008610898550797549
-0.13823007675795088,0.02234021442552742,0.0991347015132779,10.460426666666667,-0.53936575,-2.8847895416666667,-0.0025777422858049765,0.0212799742605337,0.07684054076841942,-0.02559540815813044,0.12433361564350862,0.058080463256082425,0.00663795473560121,0.0021035426028091745,0.00026980698084099733,-0.1665903269581429,-0.07153304135057013,-0.0006188624924706178
-0.1514945790731078,0.01815142422074103,0.09843656981248018,10.795487208333332,-0.392266,-2.8847895416666667,-0.0025777422858049765,0.0212799742605337,0.07684054076841942,-0.02559540815813044,0.12433361564350862,0.058080463256082425,0.009021170475103476,0.002931485832915169,0.0031548563862772083,-0.04012172007564545,0.0023784225758911584,0.0032336048571266285
-0.16964600329384885,0.012566370614359173,0.09285151620609833,10.877209291666667,-0.392266,-2.8929617499999996,-0.0025777422858049765,0.0212799742605337,0.07684054076841942,-0.02559540815813044,0.12433361564350862,0.058080463256082425,0.009941251887394894,0.004871593458879621,0.006939587240569535,-0.09734892049358053,-0.021635128287777854,0.01942225054915766
-0.18989182261698306,0.0027925268031909274,0.07888888219014369,11.073342291666666,-0.34323275000000003,-2.9338227916666666,-0.0025777422858049765,0.0212799742605337,0.07684054076841942,-0.02559540815813044,0.12433361564350862,0.058080463256082425,0.007698749670973036,0.004706162297209847,0.005798511348441066,0.000570377584541431,0.0399442265590327,-0.02161305474322607
-0.20455258833373544,-0.006981317007977318,0.06702064327658225,11.073342291666666,-0.416782625,-2.8929617499999996,-0.0025777422858049765,0.0212799742605337,0.07684054076841942,-0.02559540815813044,0.12433361564350862,0.058080463256082425,0.004327167236544649,0.008436425981542548,-0.0008139636246747839,-0.10153849284413759,0.04424538730475528,0.030743500139378724
-0.21362830044410594,-0.023736477827122883,0.06841690667817772,11.277647499999999,-0.4985047083333333,-2.9583394166666666,-0.0025777422858049765,0.0212799742605337,0.07684054076841942,-0.02559540815813044,0.12433361564350862,0.058080463256082425,0.0012193595119210684,0.003444708560737881,-0.003311852114705281,-0.011864973029948399,0.08110176038513225,0.0304941905534336
-0.21642082724729686,-0.0307177948351002,0.07539822368615504,11.302164125000001,-0.6537766666666667,-3.023717083333333,-0.0025777422858049765,0.0212799742605337,0.07684054076841942,-0.02559540815813044,0.12433361564350862,0.058080463256082425,0.0002019477507296013,0.004267603830117421,-0.008788179012277318,-0.09356409839776039,0.03590687490409594,0.09971838658925969
-0.21642082724729686,-0.039095375244672985,0.09354964790689606,11.490124916666666,-0.7191543333333333,-3.2280222916666665,-0.0025777422858049765,0.0212799742605337,0.07684054076841942,-0.02559540815813044,0.12433361564350862,0.058080463256082425,-0.0001732630427892433,-0.0014927432400896464,-0.0099299873211703,0.04111921170440193,0.027168119420676467,0.02197263832239154
-0.21572269554649914,-0.03630284844148206,0.11309733552923257,11.408402833333332,-0.7681875833333334,-3.2770555416666665,-0.0025777422858049765,0.0212799742605337,0.07684054076841942,-0.02559540815813044,0.12433361564350862,0.058080463256082425,-0.0029018631600007563,0.001450700767610749,-0.006206502928495981,0.02463116022961567,0.00636487710362552,0.05456962448790948
-0.21013764194011728,-0.039793506945470715,0.12566370614359174,11.359369583333333,-0.7763597916666666,-3.391466458333333,-0.0025777422858049765,0.0212799742605337,0.07684054076841942,-0.02559540815813044,0.12433361564350862,0.058080463256082425,0.0012612858266225582,0.0015816009758102634,-0.0043890366799545395,0.0941854878092782,-0.014268548124138206,0.005622353194412607
-0.21293016874330817,-0.04258603374866164,0.1340412865531645,11.171408791666666,-0.7436709583333333,-3.4078108749999996,-0.0025777422858049765,0.0212799742605337,0.07684054076841942,-0.02559540815813044,0.12433361564350862,0.058080463256082425,-0.00142203268292699,0.004358871293087508,0.0006921789829373608,0.012340228083087178,-0.03887839783070501,0.02584407803336989
-0.21013764194011728,-0.050963614158234416,0.13264502315156904,11.146892166666666,-0.661948875,-3.4650163333333333,-0.0025777422858049765,0.0212799742605337,0.07684054076841942,-0.02559540815813044,0.12433361564350862,0.058080463256082425,0.0014804466505787322,0.00482526231542117,0.0026881864012682265,-0.08366103406777897,-0.25696895255162383,-0.2726990106187233
-0.21293016874330817,-0.06213372137099814,0.1291543646475804,10.950759166666666,-0.661948875,-3.4078108749999996,-0.0025777422858049765,0.0212799742605337,0.07684054076841942,-0.02559540815813044,0.12433361564350862,0.058080463256082425,0.0038059473411709856,0.007814947500405156,0.006782251368734352,-0.0165014211635939,-0.018099695509060876,0.013192543029158486
-0.2199114857512855,-0.07819075048934597,0.11588986233242347,10.983448000000001,-0.6210878333333334,-3.4404997083333333,-0.0025777422858049765,0.0212799742605337,0.07684054076841942,-0.02559540815813044,0.12433361564350862,0.058080463256082425,0.001994297842424042,0.004955034362225989,0.004959826783276322,0.028553609198217582,-0.0015079097002693703,-0.04044457589455881
-0.2241002759560719,-0.0879645943005142,0.10611601852125524,10.926242541666667,-0.612915625,-3.366949833333333,-0.0025777422858049765,0.0212799742605337,0.07684054076841942,-0.02559540815813044,0.12433361564350862,0.058080463256082425,0.0024437307943315553,0.005045680600751872,0.00020467882202581755,-0.0738626989522495,0.015023334662016942,0.024449988936157175
-0.228987197861656,-0.09843656981248018,0.1054178868204575,11.073342291666666,-0.63743225,-3.4241552916666667,-0.0025777422858049765,0.0212799742605337,0.07684054076841942,-0.02559540815813044,0.12433361564350862,0.058080463256082425,0.0008700108834424505,0.0019189767464754238,0.0027788761709196795,-0.06558869986043019,0.03143334649216902,-0.0042401894097045265
-0.23108159296404923,-0.10192722831646883,0.09983283321407566,11.204097625,-0.6946377083333333,-3.4241552916666667,-0.0025777422858049765,0.0212799742605337,0.07684054076841942,-0.02559540815813044,0.12433361564350862,0.058080463256082425,-0.0021865042201915843,0.0006898481636160442,-0.0022039988974773906,-0.06555112037783939,0.04791514785573754,-0.02902689638253927
-0.22619467105846514,-0.10332349171806432,0.10402162341886204,11.334852958333332,-0.784532,-3.3751220416666667,-0.0025777422858049765,0.0212799742605337,0.07684054076841942,-0.02559540815813044,0.12433361564350862,0.058080463256082425,-0.0021895675376552505,-0.0015150918014849438,-0.0053393115497508605,-0.01690553826910522,0.055920374629431835,0.03238553345149175
-0.22200588085367873,-0.10053096491487339,0.11519173063162574,11.367541791666666,-0.8907707083333333,-3.4486719166666666,-0.0025777422858049765,0.0212799742605337,0.07684054076841942,-0.02559540815813044,0.12433361564350862,0.058080463256082425,-0.007173556854856635,-0.0018093021142659535,-0.01091395711623951,-0.037085214175038454,0.047037341208110275,0.0037868093758432054
-0.20734511513692636,-0.09704030641088471,0.13683381335635544,11.441091666666667,-0.980665,-3.4650163333333333,-0.0025777422858049765,0.0212799742605337,0.07684054076841942,-0.02559540815813044,0.12433361564350862,0.058080463256082425,-0.008943815439959509,-0.00010272338258993852,-0.014308617077664622,0.024128599484058683,0.038084321608535955,0.044765509565420004
-0.18989182261698306,-0.09704030641088471,0.16545721308906244,11.392058416666666,-1.054214875,-3.563082833333333,-0.0025777422858049765,0.0212799742605337,0.07684054076841942,-0.02559540815813044,0.12433361564350862,0.058080463256082425,-0.007882298117753756,-0.001100661909085814,-0.00789681563196191,-0.053765461881104724,0.012831174224822198,0.04868955457294826
-0.17383479349863523,-0.09494591130849153,0.18151424220741028,11.498297125,-1.0787315,-3.6693215416666662,-0.0025777422858049765,0.0212799742605337,0.07684054076841942,-0.02559540815813044,0.12433361564350862,0.058080463256082425,-0.00946677696041117,-0.004823332350176421,-0.0046665654308258985,-0.2978566344826803,-0.13102032239414274,-0.08147501076233608
-0.15498523757709648,-0.08587019919812101,0.19128808601857852,11.375713999999999,-0.9970094166666666,-3.726527,-0.0025777422858049765,0.0212799742605337,0.07684054076841942,-0.02559540815813044,0.12433361564350862,0.058080463256082425,-0.00832056068812774,0.0020666190875940193,-0.000474487378693787,0.03221583999806972,-0.061471539782376676,0.012375276590239839
-0.13823007675795088,-0.09005898940290741,0.19268434942017396,11.310336333333332,-0.8744262916666666,-3.759215833333333,-0.0025777422858049765,0.0212799742605337,0.07684054076841942,-0.02559540815813044,0.12433361564350862,0.058080463256082425,0.00025573101462910417,-0.0030823206251145837,0.00202738102324381,0.04036490458735856,-0.06151702405099868,0.0003802603980877239
-0.13892820845874865,-0.08377580409572781,0.1884955592153876,11.22861425,-0.7518431666666666,-3.7673880416666665,-0.0025777422858049765,0.0212799742605337,0.07684054076841942,-0.02559540815813044,0.12433361564350862,0.058080463256082425,0.002638208872176778,0.0029900039916446663,0.004016779600157274,0.048524510834322666,-0.012291577213153293,-0.003659466994371007
-0.14381513036433274,-0.09005898940290741,0.18011797880581482,11.13054775,-0.7273265416666667,-3.7673880416666665,-0.0025777422858049765,0.0212799742605337,0.07684054076841942,-0.02559540815813044,0.12433361564350862,0.058080463256082425,0.0017098614375279984,0.0017502342890635385,0.009803814174175335,0.05278848344188118,-0.016004726425002024,-0.056915516864238846
-0.14730578886832138,-0.09354964790689606,0.16126842288427606,11.024309041666667,-0.6946377083333333,-3.6611493333333334,-0.0025777422858049765,0.0212799742605337,0.07684054076841942,-0.02559540815813044,0.12433361564350862,0.058080463256082425,-3.81205469389866e-05,0.0035903368035976177,0.009008425152862435,0.03637822457845799,0.01733732605183518,-0.024322682273919757
-0.14730578886832138,-0.10053096491487339,0.143116998663535,10.950759166666666,-0.7273265416666667,-3.6202882916666663,-0.0025777422858049765,0.0212799742605337,0.07684054076841942,-0.02559540815813044,0.12433361564350862,0.058080463256082425,0.000144906450869023,-0.00225344367308288,0.004195925565395934,-0.016701827951796127,0.0011771927896320825,-0.03266204782043718
-0.14730578886832138,-0.09634217471008698,0.13473941825396224,10.983448000000001,-0.7273265416666667,-3.563082833333333,-0.0025777422858049765,0.0212799742605337,0.07684054076841942,-0.02559540815813044,0.12433361564350862,0.058080463256082425,-0.0029343121806808944,-0.0011940500750680324,0.00037011756423647714,0.03635866958855879,0.05445780849466828,-0.02029265176798334
-0.14102260356114182,-0.09354964790689606,0.1340412865531645,10.909898125,-0.83356525,-3.530394,-0.0025777422858049765,0.0212799742605337,0.07684054076841942,-0.02559540815813044,0.12433361564350862,0.058080463256082425,-0.0038409738482535543,-0.00492913023964206,0.0026584634464045125,-0.028986879645890282,-0.01887289310099399,-0.0036711795098101335
-0.1340412865531645,-0.08377580409572781,0.12845623294678266,10.967103583333333,-0.7927042083333332,-3.530394,-0.0025777422858049765,0.0212799742605337,0.07684054076841942,-0.02559540815813044,0.12433361564350862,0.058080463256082425,-0.0037521399065511434,-0.005777283590644462,0.0024284537840090314,0.07344433812961519,-0.0068408226492912005,-0.011564231382736828
-0.12636183784438945,-0.07260569688296412,0.12426744274199628,10.820003833333333,-0.7763597916666666,-3.514049583333333,-0.0025777422858049765,0.0212799742605337,0.07684054076841942,-0.02559540815813044,0.12433361564350862,0.058080463256082425,0.0007751842302306587,-0.006048915939694678,0.0010489426220574342,0.05705677616733598,-0.03113763523461219,0.02960618778835315
-0.12775810124598494,-0.06073745796940267,0.12217304763960307,10.705592916666665,-0.7109821249999999,-3.5794272499999997,-0.0025777422858049765,0.0212799742605337,0.07684054076841942,-0.02559540815813044,0.12433361564350862,0.058080463256082425,0.000615565144645898,-0.002716584916331289,0.0014192145821303773,0.0204661156797274,-0.002398216242778499,0.02194570661201086
-0.1291543646475804,-0.05515240436302082,0.11938052083641214,10.664731875,-0.7028099166666667,-3.6284604999999996,-0.0025777422858049765,0.0212799742605337,0.07684054076841942,-0.02559540815813044,0.12433361564350862,0.058080463256082425,0.003510124638330221,-0.004800795465685437,0.006306363920396328,0.02863039545132962,0.010119976759042415,0.030001620919931943
-0.1361356816555577,-0.04537856055185257,0.10681415022205297,10.607526416666667,-0.7191543333333333,-3.693838166666666,-0.0025777422858049765,0.0212799742605337,0.07684054076841942,-0.02559540815813044,0.12433361564350862,0.058080463256082425,0.00538764691982824,0.0003280619509770443,0.005132751473971425,0.06153718190037766,-0.026371031383455857,-0.0024746717260645647
-0.1466076571675237,-0.046076692252650306,0.09634217471008698,10.484943291666665,-0.661948875,-3.693838166666666,-0.0025777422858049765,0.0212799742605337,0.07684054076841942,-0.02559540815813044,0.12433361564350862,0.058080463256082425,0.004564047668110005,-0.002976648068385107,0.006956814467136172,-0.003900718158100874,-0.029909930795315436,0.030360664795491547
-0.1556833692778942,-0.039793506945470715,0.08237954069413235,10.4931155,-0.5965712083333333,-3.759215833333333,-0.0025777422858049765,0.0212799742605337,0.07684054076841942,-0.02559540815813044,0.12433361564350862,0.058080463256082425,0.004996238925385815,-0.0006675768832315374,0.006473793751284531,0.037024963688230016,0.015456046394932402,-0.014299025094013646
-0.16615534478986016,-0.039095375244672985,0.06911503837897544,10.419565624999999,-0.6210878333333334,-3.7346992083333332,-0.0025777422858049765,0.0212799742605337,0.07684054076841942,-0.02559540815813044,0.12433361564350862,0.058080463256082425,0.004084933771007833,-0.0033971764911561917,0.006797417038869344,-0.00784549457112126,-0.00034708382446702496,-0.010394235418432271
-0.17453292519943295,-0.032114058236695664,0.05585053606381855,10.435910041666666,-0.612915625,-3.718354791666666,-0.0025777422858049765,0.0212799742605337,0.07684054076841942,-0.02559540815813044,0.12433361564350862,0.058080463256082425,0.006117133674461493,-0.0052839081663252204,0.003498745276827161,0.10266101908929845,0.024255429258659693,-0.014238334588664381
-0.1864011641129944,-0.021642082724729686,0.048869219055841226,10.231604833333332,-0.6537766666666667,-3.693838166666666,-0.0025777422858049765,0.0212799742605337,0.07684054076841942,-0.02559540815813044,0.12433361564350862,0.058080463256082425,0.003351201305378018,-0.0061620348274323885,0.004713066288958092,0.049548226293993566,0.012472906958038876,-0.005864576928172107
-0.19268434942017396,-0.009075712110370514,0.039793506945470715,10.133538333333334,-0.6701210833333332,-3.6856659583333333,-0.0025777422858049765,0.0212799742605337,0.07684054076841942,-0.02559540815813044,0.12433361564350862,0.058080463256082425,0.0003100542334643234,-0.0060777302716514235,0.0010189689513416715,0.07428681221952986,-0.0202234906526281,-0.06245020732852257
-0.19338248112097173,0.0027925268031909274,0.03769911184307752,9.986438583333333,-0.6210878333333334,-3.563082833333333,-0.0025777422858049765,0.0212799742605337,0.07684054076841942,-0.02559540815813044,0.12433361564350862,0.058080463256082425,-0.0009218873793655401,-0.004542941148402969,0.002679440721438299,0.09873582747040546,0.00017333129580829606,-0.09510540297443812
-0.19198621771937624,0.011868238913561441,0.032114058236695664,9.790305583333332,-0.612915625,-3.3751220416666667,-0.0025777422858049765,0.0212799742605337,0.07684054076841942,-0.02559540815813044,0.12433361564350862,0.058080463256082425,-0.00146308977207832,-0.001423818398905213,-0.0008770582048444855,0.07431807703493516,0.012452413525707896,-0.0703079725766752
-0.18919369091618532,0.014660765716752367,0.03420845333908886,9.643205833333333,-0.6292600416666666,-3.2361945,-0.0025777422858049765,0.0212799742605337,0.07684054076841942,-0.02559540815813044,0.12433361564350862,0.058080463256082425,-0.0050195337745063615,-0.003342576992487369,-0.000555238742870425,0.0008495779116717602,0.04519916687206074,-0.029433899947459166
-0.17872171540421936,0.021642082724729686,0.03490658503988659,9.643205833333333,-0.7109821249999999,-3.178989041666666,-0.0025777422858049765,0.0212799742605337,0.07684054076841942,-0.02559540815813044,0.12433361564350862,0.058080463256082425,-0.008569759112467962,-0.0020618695938591823,-0.004684532025202811,0.05817460938780699,0.07733820682833652,-0.02922990515230615
-0.16196655458507375,0.02583087292951608,0.04468042885105484,9.528794916666666,-0.8580818749999999,-3.1217835833333334,-0.0025777422858049765,0.0212799742605337,0.07684054076841942,-0.02559540815813044,0.12433361564350862,0.058080463256082425,-0.013613121846227446,-0.004020977407127951,-0.0038497558485298356,-0.06842397571602393,0.02793673336381541,-0.0006913650242566823
-0.1340412865531645,0.033510321638291124,0.05235987755982988,9.667722458333333,-0.9071151249999999,-3.1217835833333334,-0.0025777422858049765,0.0212799742605337,0.07684054076841942,-0.02559540815813044,0.12433361564350862,0.058080463256082425,-0.014488983856612193,-0.003996246269652386,-0.0090644428872721,0.02144127020356969,-0.025654863855756813,-0.03289208597819446
-0.1054178868204575,0.041887902047863905,0.07051130178057091,9.626861416666666,-0.8499096666666667,-3.0564059166666664,-0.0025777422858049765,0.0212799742605337,0.07684054076841942,-0.02559540815813044,0.12433361564350862,0.058080463256082425,-0.009328954698080321,-0.002368368479466331,-0.004712294367379726,-0.07251706965912189,-0.1241608879827195,0.05730749060065771
-0.08656833089891874,0.046076692252650306,0.07958701389094143,9.773961166666666,-0.5965712083333333,-3.170816833333333,-0.0025777422858049765,0.0212799742605337,0.07684054076841942,-0.02559540815813044,0.12433361564350862,0.058080463256082425,-0.002583413375335094,-0.0033512486854901623,0.0005127711878908751,-0.011333901928922117,-0.08352729746756225,0.02482492646146233
-0.08168140899333462,0.05305800926062762,0.07888888219014369,9.798477791666667,-0.42495483333333334,-3.219850083333333,-0.0025777422858049765,0.0212799742605337,0.07684054076841942,-0.02559540815813044,0.12433361564350862,0.058080463256082425,0.0024714059152486385,0.0001895844771641001,0.011680159734759431,-0.06432224034577348,-0.1037459024690732,0.016697259725296128
-0.08656833089891874,0.05235987755982988,0.05515240436302082,9.929233125,-0.21247741666666667,-3.2525389166666665,-0.0025777422858049765,0.0212799742605337,0.07684054076841942,-0.02559540815813044,0.12433361564350862,0.058080463256082425,0.005890416798503871,0.002631337602695364,0.01246919005180292,0.08694115751713785,0.027793417880143955,-0.01605451413939832
-0.09843656981248018,0.047472955654245766,0.0307177948351002,9.757616749999999,-0.26151066666666667,-3.219850083333333,-0.0025777422858049765,0.0212799742605337,0.07684054076841942,-0.02559540815813044,0.12433361564350862,0.058080463256082425,0.00692755183328435,-0.0007506210064953353,0.016167134524441903,-1.6848386536860593,-0.12944909825844436,0.022152188276031364
-0.1117010721276371,0.04537856055185257,0.0013962634015954637,9.765788958333333,-0.2860272916666666,-3.2770555416666665,-0.0025777422858049765,0.0212799742605337,0.07684054076841942,-0.02559540815813044,0.12433361564350862,0.058080463256082425,0.007762819828383698,0.001933253869113625,0.013513449212252606,0.05816550974512888,0.04965148756249301,0.012272144135508492
-0.1270599695451872,0.041887902047863905,-0.02583087292951608,9.651378041666666,-0.3759215833333333,-3.3015721666666664,-0.0025777422858049765,0.0212799742605337,0.07684054076841942,-0.02559540815813044,0.12433361564350862,0.058080463256082425,0.007637159462751668,-0.0017880648162718151,0.00637988499619841,-0.010981721414755638,0.001381088059168486,-0.00819085494607413
-0.14172073526193954,0.04537856055185257,-0.03839724354387525,9.675894666666666,-0.367749375,-3.2852277500000002,-0.0025777422858049765,0.0212799742605337,0.07684054076841942,-0.02559540815813044,0.12433361564350862,0.058080463256082425,0.006550019185324125,-0.0017809198836049322,0.0017734880559283962,0.11144671807406525,-0.014783734540477296,-0.0285213083066819
-0.1556833692778942,0.048869219055841226,-0.041887902047863905,9.455245041666666,-0.32688833333333334,-3.2280222916666665,-0.0025777422858049765,0.0212799742605337,0.07684054076841942,-0.02559540815813044,0.12433361564350862,0.058080463256082425,0.008590355162438671,-0.0025124169162727907,0.00564014735926197,-0.006954007458169627,-0.006271035037315984,-0.01635017111674702
-0.17243853009703977,0.05375614096142535,-0.05375614096142535,9.471589458333332,-0.3023717083333333,-3.195333458333333,-0.0025777422858049765,0.0212799742605337,0.07684054076841942,-0.02559540815813044,0.12433361564350862,0.058080463256082425,0.010328216473924425,-0.00019333260356946166,0.004375062535885078,0.11563071210278897,0.014475872160270057,-0.007921579801055957
-0.19338248112097173,0.05375614096142535,-0.06213372137099814,9.242767624999999,-0.318716125,-3.178989041666666,-0.0025777422858049765,0.0212799742605337,0.07684054076841942,-0.02559540815813044,0.12433361564350862,0.058080463256082425,0.006604782790128555,0.0002016294610369562,0.005916387063706744,-0.0028517616556207603,0.03101836168634082,0.004181540045744511
-0.2059488517353309,0.05375614096142535,-0.07400196028455958,9.250939833333334,-0.367749375,-3.18716125,-0.0025777422858049765,0.0212799742605337,0.07684054076841942,-0.02559540815813044,0.12433361564350862,0.058080463256082425,0.005482136399687181,-0.001953637421527095,0.006152058823853521,0.08313286519691505,0.08048704125252588,-0.020425058201105475
-0.21711895894809458,0.057246799465414,-0.08587019919812101,9.087495666666666,-0.5148491249999999,-3.1463002083333333,-0.0025777422858049765,0.0212799742605337,0.07684054076841942,-0.02559540815813044,0.12433361564350862,0.058080463256082425,0.0021552999654366575,0.002950029549409169,0.002109325396934008,-0.010804050069709607,0.04802515426188928,-0.020301388151067908
-0.22130774915288098,0.05166174585903216,-0.09005898940290741,9.112012291666666,-0.5965712083333333,-3.1054391666666663,-0.0025777422858049765,0.0212799742605337,0.07684054076841942,-0.02559540815813044,0.12433361564350862,0.058080463256082425,-0.001085095828751575,-0.0018255414328170808,-0.0044204812148239,0.0708966099538327,0.043708065690879,-0.016541035427772036
-0.2192133540504878,0.05515240436302082,-0.08168140899333462,8.97308475,-0.6701210833333332,-3.0727503333333335,-0.0025777422858049765,0.0212799742605337,0.07684054076841942,-0.02559540815813044,0.12433361564350862,0.058080463256082425,-0.002973591290735311,-0.00020075111080619204,-0.009319093290184583,-0.06824790852316424,0.010950332802267834,0.024529538525690238
-0.21362830044410594,0.05585053606381855,-0.06283185307179587,9.112012291666666,-0.6782932916666666,-3.1217835833333334,-0.0025777422858049765,0.0212799742605337,0.07684054076841942,-0.02559540815813044,0.12433361564350862,0.058080463256082425,-0.002379446392496214,-0.001968091027332852,-0.01161342655659354,0.0056403948607518075,0.006214891635905342,0.016357933799352332
-0.20874137853852182,0.059341194567807204,-0.039793506945470715,9.103840083333333,-0.6782932916666666,-3.1544724166666662,-0.0025777422858049765,0.0212799742605337,0.07684054076841942,-0.02559540815813044,0.12433361564350862,0.058080463256082425,-0.002208324317049392,-0.002633353208080678,-0.004310745439122882,-0.10093534623426469,-0.08403176007894823,0.012491840470550346
-0.20455258833373544,0.06492624817418906,-0.0307177948351002,9.308145291666667,-0.4985047083333333,-3.178989041666666,-0.0025777422858049765,0.0212799742605337,0.07684054076841942,-0.02559540815813044,0.12433361564350862,0.058080463256082425,0.0009011133842247871,-0.0015311031518054235,-0.00012637613309045745,0.013630429816769181,-0.06788055505047524,-0.03634107384644921
-0.2059488517353309,0.06771877497737998,-0.030019663134302467,9.283628666666665,-0.35140495833333335,-3.1054391666666663,-0.0025777422858049765,0.0212799742605337,0.07684054076841942,-0.02559540815813044,0.12433361564350862,0.058080463256082425,0.001289766061094872,-0.0008395257665388908,0.010064694068174136,-0.05186284423630379,-0.05539448472701598,-0.023910752690753816
-0.20874137853852182,0.06911503837897544,-0.05026548245743669,9.389867375,-0.22882183333333334,-3.0564059166666664,-0.0025777422858049765,0.0212799742605337,0.07684054076841942,-0.02559540815813044,0.12433361564350862,0.058080463256082425,0.003711433358648013,-0.00014467294937194338,0.011736682919767445,0.04611383473223125,-0.0671092411584294,-0.06880430005038689
-0.21642082724729686,0.06981317007977318,-0.07400196028455958,9.299973083333333,-0.08172208333333333,-2.9174783749999995,-0.0025777422858049765,0.0212799742605337,0.07684054076841942,-0.02559540815813044,0.12433361564350862,0.058080463256082425,0.004851922530952043,0.00026229255978956254,0.009985151092290227,-0.04767821701411326,-0.06651999520862464,-0.011512387105106932
-0.22549653935766736,0.06911503837897544,-0.0942477796076938,9.398039583333333,0.06537766666666667,-2.8929617499999996,-0.0025777422858049765,0.0212799742605337,0.07684054076841942,-0.02559540815813044,0.12433361564350862,0.058080463256082425,0.00836685286282537,-0.0027553916304858803,0.008057709922546969,0.09101012649976872,0.003323588918608496,-0.027795337568491372
-0.24225170017681294,0.0747000919853573,-0.11030480872604163,9.218250999999999,0.07354987499999999,-2.8357562916666668,-0.0025777422858049765,0.0212799742605337,0.07684054076841942,-0.02559540815813044,0.12433361564350862,0.058080463256082425,0.005751724206709813,-0.0018433164999456973,0.0015987289484067242,0.05013461288472741,0.03633220411040284,-0.04831029521360093
-0.25342180738957665,0.07819075048934597,-0.11309733552923257,9.1201845,0.016344416666666667,-2.7376897916666665,-0.0025777422858049765,0.0212799742605337,0.07684054076841942,-0.02559540815813044,0.12433361564350862,0.058080463256082425,-0.0015949015160115004,-0.00639492693008269,-0.0027000942450621304,0.08728191612780052,0.06879902409875355,-0.043929103323881814
-0.2506292805863857,0.09145525280450287,-0.1075122819228507,8.948568125,-0.10623870833333333,-2.6477955,-0.0025777422858049765,0.0212799742605337,0.07684054076841942,-0.02559540815813044,0.12433361564350862,0.058080463256082425,0.00015543140049649026,-0.003422783013240511,-0.0022591403831307157,-1.372120918759804,-0.06594211902689695,0.3395615307125577
-0.249931148885588,0.09564404300928926,-0.10122909661567112,8.866846041666665,-0.13892754166666665,-2.59876225,-0.0025777422858049765,0.0212799742605337,0.07684054076841942,-0.02559540815813044,0.12433361564350862,0.058080463256082425,-0.002077383426799007,-0.002985273585855645,0.0010813734816517127,0.009622691663536105,0.052106267021616186,-0.007118557219395977
-0.24644049038159932,0.10192722831646883,-0.10332349171806432,8.850501625,-0.22882183333333334,-2.582417833333333,-0.0025777422858049765,0.0212799742605337,0.07684054076841942,-0.02559540815813044,0.12433361564350862,0.058080463256082425,-0.0004885792404973245,-0.0014329292616825898,0.003515484885859004,-0.047501730363344874,0.04429746493490494,0.046173684389735015
-0.24504422698000386,0.1054178868204575,-0.11030480872604163,8.948568125,-0.3023717083333333,-2.672312125,-0.0025777422858049765,0.0212799742605337,0.07684054076841942,-0.02559540815813044,0.12433361564350862,0.058080463256082425,-0.0029047798386828017,-0.004716196513868595,0.0017837311543360264,-0.04314171019926413,0.03615799920513632,0.05036938630131325
-0.23876104167282428,0.114493598930828,-0.11379546723003027,9.038462416666666,-0.35957716666666667,-2.7703786249999998,-0.0025777422858049765,0.0212799742605337,0.07684054076841942,-0.02559540815813044,0.12433361564350862,0.058080463256082425,-0.0007692379273423389,-7.490137822534681e-05,-0.005862636724975071,-0.09227065699246863,0.0034388927765773114,0.04245689447572715
-0.23736477827122882,0.114493598930828,-0.10192722831646883,9.226423208333333,-0.35140495833333335,-2.852100708333333,-0.0025777422858049765,0.0212799742605337,0.07684054076841942,-0.02559540815813044,0.12433361564350862,0.058080463256082425,-0.002908762473595947,-0.0017767659730971777,-0.0035353223894748122,-0.0554697900697779,0.048298490640346574,0.005509596648349632
-0.23177972466484695,0.11798425743481668,-0.09494591130849153,9.340834124999999,-0.43312704166666666,-2.8602729166666667,-0.0025777422858049765,0.0212799742605337,0.07684054076841942,-0.02559540815813044,0.12433361564350862,0.058080463256082425,0.0009903672226211297,-0.0005636479887843012,-0.006783796257274491,-0.12908915425524983,-0.01311781527822293,0.0016407323364582317
-0.23387411976724018,0.11938052083641214,-0.08168140899333462,9.602344791666665,-0.392266,-2.8602729166666667,-0.0025777422858049765,0.0212799742605337,0.07684054076841942,-0.02559540815813044,0.12433361564350862,0.058080463256082425,0.0002723212092971092,-0.006374153033556595,-0.0033237398541814535,-0.055356084522950974,0.010976129014073382,0.005981254650551175
-0.23457225146803787,0.1319468914507713,-0.0747000919853573,9.716755708333332,-0.4004382083333333,-2.8684451249999996,-0.0025777422858049765,0.0212799742605337,0.07684054076841942,-0.02559540815813044,0.12433361564350862,0.058080463256082425,9.637264212064877e-05,-0.0037510741274224923,-0.004538888801580778,-0.06754886533838861,-0.005235128421830701,0.022703288698656645
-0.23457225146803787,0.13892820845874865,-0.06562437987498679,9.855683249999998,-0.3759215833333333,-2.9093061666666666,-0.0025777422858049765,0.0212799742605337,0.07684054076841942,-0.02559540815813044,0.12433361564350862,0.058080463256082425,0.0031479534298349946,-0.011545963880672205,0.0018713874872630257,0.0060560257036539585,0.015157431629203934,0.0023760395493307006
-0.2408554367752175,0.16196655458507375,-0.06911503837897544,9.847511041666666,-0.392266,-2.9093061666666666,-0.0025777422858049765,0.0212799742605337,0.07684054076841942,-0.02559540815813044,0.12433361564350862,0.058080463256082425,0.0011934868886215066,-0.013342164165635153,-0.0021386675851776415,-0.5909460642627359,-0.05770299287411279,0.27413710613953757
-0.24294983187761068,0.1884955592153876,-0.06422811647339133,9.692239083333332,-0.4004382083333333,-2.9093061666666666,-0.0025777422858049765,0.0212799742605337,0.07684054076841942,-0.02559540815813044,0.12433361564350862,0.058080463256082425,0.0008884753488306412,-0.015347934441303003,0.0018830384648363832,0.11268704813958919,-0.0340314628619276,0.028062256524235673
-0.24504422698000386,0.21851522234969004,-0.06771877497737998,9.471589458333332,-0.318716125,-2.9583394166666666,-0.0025777422858049765,0.0212799742605337,0.07684054076841942,-0.02559540815813044,0.12433361564350862,0.058080463256082425,0.003886031721151873,-0.009212579078751209,0.0018314061506421418,0.1824017310687099,-0.054556843485064566,0.00407047602400366
-0.2527236756887789,0.23736477827122882,-0.07120943348136866,9.112012291666666,-0.196133,-2.9583394166666666,-0.0025777422858049765,0.0212799742605337,0.07684054076841942,-0.02559540815813044,0.12433361564350862,0.058080463256082425,0.0045391329188984595,-0.009166004606639995,0.0044619345484065,0.21510295986161412,-0.01351773646188067,0.03300795332396015
-0.2611012560983517,0.2555162024919699,-0.08028514559173915,8.687057458333333,-0.15527195833333335,-3.015544875,-0.0025777422858049765,0.0212799742605337,0.07684054076841942,-0.02559540815813044,0.12433361564350862,0.058080463256082425,0.004705074193875909,-0.0046002317636936775,0.0015266247233105665,0.14568754044382018,-0.017698575880515835,-0.028260242297996577
-0.2708750999095199,0.2645919146023404,-0.08307767239493008,8.401030166666667,-0.10623870833333333,-2.9501672083333332,-0.0025777422858049765,0.0212799742605337,0.07684054076841942,-0.02559540815813044,0.12433361564350862,0.058080463256082425,0.0007011486173593345,-0.004280126912164857,-0.0007155384076786274,0.08446739085530594,0.011085101041530088,-0.011648934316302519
-0.2722713633111154,0.27296949501191314,-0.08168140899333462,8.237585999999999,-0.11441091666666667,-2.9174783749999995,-0.0025777422858049765,0.0212799742605337,0.07684054076841942,-0.02559540815813044,0.12433361564350862,0.058080463256082425,-0.004819401782333204,0.002733006192106859,-0.005162382200383703,0.06822603157363127,0.07613852147470568,-0.016159895881104818
-0.26249751949994715,0.2673844414055313,-0.07120943348136866,8.106830666666665,-0.2533384583333333,-2.8766173333333334,-0.0025777422858049765,0.0212799742605337,0.07684054076841942,-0.02559540815813044,0.12433361564350862,0.058080463256082425,-0.00858128924438764,-0.00459439821160202,-0.0059456205704023265,0.006767819696102297,0.04309928076380649,-0.020041042817505492
-0.24504422698000386,0.27715828521669955,-0.059341194567807204,8.098658458333333,-0.32688833333333334,-2.827584083333333,-0.0025777422858049765,0.0212799742605337,0.07684054076841942,-0.02559540815813044,0.12433361564350862,0.058080463256082425,-0.011279559548196396,-0.00336730215006788,-0.010273646878858574,-0.009469494647907447,-0.014852005102466941,-0.015754358096383383
-0.22270401255447644,0.2834414705238791,-0.039095375244672985,8.123175083333333,-0.2860272916666666,-2.7867230416666664,-0.0025777422858049765,0.0212799742605337,0.07684054076841942,-0.02559540815813044,0.12433361564350862,0.058080463256082425,-0.012101948925183974,-0.006081674128321702,-0.007105598792714818,-0.07477210896276262,-0.019129547811467626,0.0009520958794958606
-0.1982694030265558,0.2953097094374406,-0.024434609527920613,8.278447041666666,-0.23699404166666665,-2.778550833333333,-0.0025777422858049765,0.0212799742605337,0.07684054076841942,-0.02559540815813044,0.12433361564350862,0.058080463256082425,-0.011161447343845016,-0.0090874681909953,-0.006447247496273662,-0.5776354355379487,-0.12305424758286808,0.228120405425038
-0.1759291886010284,0.3127630019573839,-0.010471975511965976,8.237585999999999,-0.196133,-2.69682875,-0.0025777422858049765,0.0212799742605337,0.07684054076841942,-0.02559540815813044,0.12433361564350862,0.058080463256082425,-0.014025347104069729,-0.004849090859072091,-0.005175872368342762,-0.005290913753744907,-0.016279397797692836,0.005670854143258028
-0.14800392056911915,0.3225368457685521,0.0,8.253930416666666,-0.15527195833333335,-2.69682875,-0.0025777422858049765,0.0212799742605337,0.07684054076841942,-0.02559540815813044,0.12433361564350862,0.058080463256082425,-0.014604748665254949,-0.0034414224911645227,-0.00787394594151514,0.06435120912304491,0.04885810851282877,-0.04344506507326205
-0.11868238913561441,0.3295181627765294,0.0153588974175501,8.131347291666666,-0.24516625,-2.59876225,-0.0025777422858049765,0.0212799742605337,0.07684054076841942,-0.02559540815813044,0.12433361564350862,0.058080463256082425,-0.010447465823875261,-0.0009805653081387611,-0.0047579805570109966,-0.03391842095762157,-0.04559260689946042,-0.026761016376996204
-0.09773843811168245,0.33161255787892263,0.025132741228718346,8.204897166666667,-0.14709974999999997,-2.5333845833333335,-0.0025777422858049765,0.0212799742605337,0.07684054076841942,-0.02559540815813044,0.12433361564350862,0.058080463256082425,-0.009285826634447485,0.001873282746016876,-0.005920551323476042,0.05185682514594001,-0.03780990434405538,0.005688372800101007
-0.07888888219014369,0.3274237676741362,0.03700098014227979,8.106830666666665,-0.06537766666666667,-2.5333845833333335,-0.0025777422858049765,0.0212799742605337,0.07684054076841942,-0.02559540815813044,0.12433361564350862,0.058080463256082425,-0.010917966412452152,0.0015013268718545474,-0.005087458466505029,-0.04638101711066634,-0.08304432331769389,-0.03896223102374896
-0.057246799465414,0.3246312408709453,0.047472955654245766,8.204897166666667,0.10623870833333333,-2.4434902916666665,-0.0025777422858049765,0.0212799742605337,0.07684054076841942,-0.02559540815813044,0.12433361564350862,0.058080463256082425,-0.0006182320039949198,-0.0002552688516495489,-0.005881628566865025,0.02304486148303179,-0.001632872162130998,-0.04746308707950603
-0.05585053606381855,0.325329372571743,0.05864306286700947,8.164036124999999,0.11441091666666667,-2.3372515833333334,-0.0025777422858049765,0.0212799742605337,0.07684054076841942,-0.02559540815813044,0.12433361564350862,0.058080463256082425,-0.00012364373962833148,-0.00363020227372005,0.00034636546052440345,-0.030133032446239934,-0.005932208413672272,-0.006233655926445911
-0.05585053606381855,0.3323106895797203,0.05864306286700947,8.229413791666666,0.13075533333333333,-2.3127349583333334,-0.0025777422858049765,0.0212799742605337,0.07684054076841942,-0.02559540815813044,0.12433361564350862,0.058080463256082425,-0.003129356885284512,-0.0040826193726880506,-0.003333465199215449,0.09257807621849108,0.02251790992483213,-0.039044547026903714
-0.04956735075663895,0.34068826998929314,0.06492624817418906,8.049625208333332,0.08989429166666667,-2.2228406666666665,-0.0025777422858049765,0.0212799742605337,0.07684054076841942,-0.02559540815813044,0.12433361564350862,0.058080463256082425,0.00017503737024230514,-0.006636233941028251,-5.8230620759698476e-05,-0.0013325059831615037,-0.010178173688910845,0.030571725454743643
-0.04956735075663895,0.35395277230445005,0.06562437987498679,8.057797416666666,0.11441091666666667,-2.2718739166666664,-0.0025777422858049765,0.0212799742605337,0.07684054076841942,-0.02559540815813044,0.12433361564350862,0.058080463256082425,-0.0019804875631969946,-0.006369547062525156,-0.005107476377486208,-0.3000999200503553,-0.18390664313021868,0.18167381243382122
-0.04537856055185257,0.36582101121801147,0.07609635538695278,7.7390812916666665,0.18796079166666665,-2.2228406666666665,-0.0025777422858049765,0.0212799742605337,0.07684054076841942,-0.02559540815813044,0.12433361564350862,0.058080463256082425,0.0006823674748267415,-0.0013395851182311108,0.00021138224177322335,0.02753268007223801,-0.018555268207916933,0.01846231462100664
-0.04677482395344803,0.36861353802120245,0.07609635538695278,7.690048041666667,0.22882183333333334,-2.2473572916666664,-0.0025777422858049765,0.0212799742605337,0.07684054076841942,-0.02559540815813044,0.12433361564350862,0.058080463256082425,0.0004373825765727232,-0.00011424110256692339,-0.0018085532582357807,0.04775236832117399,0.00998316516094539,0.030734899782223577
-0.047472955654245766,0.36861353802120245,0.08028514559173915,7.60015375,0.21247741666666667,-2.2963905416666663,-0.0025777422858049765,0.0212799742605337,0.07684054076841942,-0.02559540815813044,0.12433361564350862,0.058080463256082425,2.6229609775328808e-05,0.001999807278930017,0.0048722892195954045,-0.0625533289582784,0.0019915963291964258,0.05532478299545406
-0.047472955654245766,0.364424747816416,0.06981317007977318,7.730909083333333,0.21247741666666667,-2.3944570416666666,-0.0025777422858049765,0.0212799742605337,0.07684054076841942,-0.02559540815813044,0.12433361564350862,0.058080463256082425,4.167558944265743e-05,0.00024904503561275654,0.004069165676342205,-0.02959521768997657,0.026440469107638857,0.006281317538960638
-0.047472955654245766,0.364424747816416,0.06213372137099814,7.79628675,0.16344416666666667,-2.3944570416666666,-0.0025777422858049765,0.0212799742605337,0.07684054076841942,-0.02559540815813044,0.12433361564350862,0.058080463256082425,-0.0014696702393442802,0.0009289520103296274,0.007615903153302911,-0.07488430335742541,-0.009873278704619178,0.018637886955490682
-0.04468042885105484,0.36163222101322506,0.04677482395344803,7.951558708333333,0.18796079166666665,-2.4189736666666666,-0.0025777422858049765,0.0212799742605337,0.07684054076841942,-0.02559540815813044,0.12433361564350862,0.058080463256082425,-0.001992649513037305,0.000931877008133108,0.0010077546877401652,0.02338089379944063,0.030956164421865044,-0.026468472789784692
-0.04049163864626844,0.36023595761162963,0.04468042885105484,7.910697666666666,0.13075533333333333,-2.3535959999999996,-0.0025777422858049765,0.0212799742605337,0.07684054076841942,-0.02559540815813044,0.12433361564350862,0.058080463256082425,-0.003907759439283542,-0.0029728591002400905,0.0009186844829309653,-0.07900724954331308,0.014675781549524564,-0.026280526341484433
-0.032812189937493394,0.36582101121801147,0.04328416544945937,8.074141833333334,0.10623870833333333,-2.288218333333333,-0.0025777422858049765,0.0212799742605337,0.07684054076841942,-0.02559540815813044,0.12433361564350862,0.058080463256082425,-0.00605337052797335,-0.002698862973067995,-0.006230619392517538,0.07234598374241644,0.03091597069057707,-0.03832197120786309
-0.020943951023931952,0.3714060648243933,0.05585053606381855,7.935214291666666,0.04903325,-2.1983240416666665,-0.0025777422858049765,0.0212799742605337,0.07684054076841942,-0.02559540815813044,0.12433361564350862,0.058080463256082425,-0.0044535822067281496,-0.0025716855004490453,-0.0035148251835606346,-0.034175194319434964,-0.006273132138801524,0.0025242202408847936
-0.011868238913561441,0.3769911184307752,0.06283185307179587,8.008764166666666,0.06537766666666667,-2.190151833333333,-0.0025777422858049765,0.0212799742605337,0.07684054076841942,-0.02559540815813044,0.12433361564350862,0.058080463256082425,-0.002341861377777028,-0.006074862611524247,-0.005423538218657038,-0.1662235253537827,-0.1929764684421239,0.04932347172930836
-0.006981317007977318,0.38816122564353883,0.0747000919853573,7.763597916666666,0.08172208333333333,-2.0593964999999996,-0.0025777422858049765,0.0212799742605337,0.07684054076841942,-0.02559540815813044,0.12433361564350862,0.058080463256082425,0.0011027682123268777,-0.001150481516040015,-0.0015094261549874757,0.08444971330667422,-0.010665306773368745,-0.038407281289039294
-0.009075712110370514,0.39025562074593206,0.07749261878854824,7.60015375,0.10623870833333333,-1.9695022083333333,-0.0025777422858049765,0.0212799742605337,0.07684054076841942,-0.02559540815813044,0.12433361564350862,0.058080463256082425,-5.585170646001735e-05,-0.002459359365840095,0.0011955007358293403,0.17420942104898657,-0.035135276537998895,-0.05102454958067182
-0.008377580409572781,0.39514254265151627,0.07539822368615504,7.256920999999999,0.17978858333333333,-1.8550912916666666,-0.0025777422858049765,0.0212799742605337,0.07684054076841942,-0.02559540815813044,0.12433361564350862,0.058080463256082425,0.0032327264077644806,0.0014476948361167447,0.0029172047863654104,0.0800613863663594,-0.002389805599904867,-0.022409312678376883
-0.0153588974175501,0.3923500158483253,0.06981317007977318,7.101649041666666,0.18796079166666665,-1.7978858333333332,-0.0025777422858049765,0.0212799742605337,0.07684054076841942,-0.02559540815813044,0.12433361564350862,0.058080463256082425,0.004109773218460355,0.0016182261806873524,-0.002454573139395862,0.12486266959508216,0.030252696085324136,-0.0840818924766823
-0.023038346126325153,0.38885935734433663,0.0747000919853573,6.856482791666667,0.13075533333333333,-1.61809725,-0.0025777422858049765,0.0212799742605337,0.07684054076841942,-0.02559540815813044,0.12433361564350862,0.058080463256082425,0.002931550059425416,0.007129885151363884,-0.001881650275250752,0.05535919017361987,-0.04742001946439758,-0.03108017362400733
-0.029321531433504733,0.374896723328382,0.07888888219014369,6.7502440833333335,0.22882183333333334,-1.5445473749999998,-0.0025777422858049765,0.0212799742605337,0.07684054076841942,-0.02559540815813044,0.12433361564350862,0.058080463256082425,0.004589016782696503,0.004671850453913087,-0.006307121316665092,0.09616787554168944,-0.02292338961987116,-0.01938766408779418
-0.03839724354387525,0.36582101121801147,0.09075712110370514,6.562283291666667,0.2778550833333333,-1.495514125,-0.0025777422858049765,0.0212799742605337,0.07684054076841942,-0.02559540815813044,0.12433361564350862,0.058080463256082425,0.0050190545840215935,0.004231062841276332,-0.007437304479523389,-0.014124767761092123,0.005436236213781558,0.025675600829863667
-0.04817108735504349,0.35674529910764097,0.10611601852125524,6.594972124999999,0.269682875,-1.5363751666666667,-0.0025777422858049765,0.0212799742605337,0.07684054076841942,-0.02559540815813044,0.12433361564350862,0.058080463256082425,0.004763335466271629,-0.0012508665263750742,-0.005973148437321188,0.0184427662627047,0.029748399231653556,0.005071867983735004
-0.05794493116621174,0.3595378259108319,0.11798425743481668,6.562283291666667,0.21247741666666667,-1.5363751666666667,-0.0025777422858049765,0.0212799742605337,0.07684054076841942,-0.02559540815813044,0.12433361564350862,0.058080463256082425,0.0056766052485039496,0.005142717183301829,-0.0034382079656852956,-0.01827728671180146,0.03375968996707506,0.037742881455069495
-0.06911503837897544,0.3490658503988659,0.124965574442794,6.603144333333333,0.14709974999999997,-1.6017528333333333,-0.0025777422858049765,0.0212799742605337,0.07684054076841942,-0.02559540815813044,0.12433361564350862,0.058080463256082425,0.004470235975796796,0.002836693268867842,-0.001732222144734296,-0.10759649854399704,-0.1882951108079872,0.023301967394219296
-0.07819075048934597,0.3427826650916863,0.12985249634837812,6.603144333333333,0.07354987499999999,-1.6426138750000001,-0.0025777422858049765,0.0212799742605337,0.07684054076841942,-0.02559540815813044,0.12433361564350862,0.058080463256082425,0.0036827728100275363,0.005365448111519206,-0.0036957100356857387,-0.030597765128130994,0.01735682283135511,0.021090267251784922
-0.08517206749732328,0.33161255787892263,0.13683381335635544,6.668522,0.04086104166666667,-1.6753027083333332,-0.0025777422858049765,0.0212799742605337,0.07684054076841942,-0.02559540815813044,0.12433361564350862,0.058080463256082425,0.0041413783254411266,0.004983445773274699,-0.003606539748761079,0.035005745611588084,0.02136479424588372,0.04142660044494293
-0.09354964790689606,0.3218387140677544,0.1445132620651305,6.603144333333333,0.0,-1.7488525833333333,-0.0025777422858049765,0.0212799742605337,0.07684054076841942,-0.02559540815813044,0.12433361564350862,0.058080463256082425,0.0014838943593264888,0.008835762390172924,-0.00837164570409146,-0.03887473828241627,0.01694822571521802,-0.02431870558869813
-0.09634217471008698,0.3043854215478111,0.16126842288427606,6.684866416666666,-0.032688833333333334,-1.6916471249999998,-0.0025777422858049765,0.0212799742605337,0.07684054076841942,-0.02559540815813044,0.12433361564350862,0.058080463256082425,0.0011366656540160271,0.0058405992995508894,-0.006957976267031182,-0.05121671531432545,0.03324694737973473,0.012331948349037707
-0.0991347015132779,0.29251718263424964,0.17523105690023066,6.791105125,-0.0980665,-1.7079915416666664,-0.0025777422858049765,0.0212799742605337,0.07684054076841942,-0.02559540815813044,0.12433361564350862,0.058080463256082425,-0.0027765763117247456,0.008053095248696986,-0.003869578507817631,-0.05930451030193458,-0.007844486495406675,0.016190155756592696
-0.09285151620609833,0.2757620218151041,0.18291050560900574,6.913688249999999,-0.08172208333333333,-1.7325081666666666,-0.0025777422858049765,0.0212799742605337,0.07684054076841942,-0.02559540815813044,0.12433361564350862,0.058080463256082425,-0.00034298900410283795,0.002592356697909165,-0.0024027179290189897,-0.06362002077406335,-7.415112444748587e-05,-0.008431774431680713
-0.09215338450530061,0.2708750999095199,0.18779742751458986,7.044443583333333,-0.08172208333333333,-1.7079915416666664,-0.0025777422858049765,0.0212799742605337,0.07684054076841942,-0.02559540815813044,0.12433361564350862,0.058080463256082425,-0.0036439233070905356,0.005249562825656208,-0.008707958049411536,-0.01463890273743542,0.0038384809207757217,-0.01653622813236483
-0.08517206749732328,0.260403124397554,0.20525072003453312,7.077132416666666,-0.08989429166666667,-1.6671305,-0.0025777422858049765,0.0212799742605337,0.07684054076841942,-0.02559540815813044,0.12433361564350862,0.058080463256082425,-0.006984942854630631,-0.0016326064525890565,-0.008201605786702617,0.05894919488544079,0.02002387793341377,-0.028966378035407966
-0.07120943348136866,0.2638937829015426,0.22200588085367873,6.962721499999999,-0.13075533333333333,-1.6017528333333333,-0.0025777422858049765,0.0212799742605337,0.07684054076841942,-0.02559540815813044,0.12433361564350862,0.058080463256082425,-0.005575738520180407,0.0034111831339258825,-0.009737039749308953,0.09562518549087119,0.019492880483150486,-0.03741138743017718
-0.060039326268604934,0.2569124658935653,0.24155356847601517,6.774760708333333,-0.17161637500000002,-1.5200307499999999,-0.0025777422858049765,0.0212799742605337,0.07684054076841942,-0.02559540815813044,0.12433361564350862,0.058080463256082425,-0.007708968679451154,0.0003795144700297714,-0.006176453995860858,0.1984864693875731,-0.25898065737411513,-0.16581681480258087
-0.0439822971502571,0.2555162024919699,0.2548180707911721,6.537766666666666,-0.13892754166666665,-1.3974476249999999,-0.0025777422858049765,0.0212799742605337,0.07684054076841942,-0.02559540815813044,0.12433361564350862,0.058080463256082425,-0.008103029677808946,0.009030023558718953,-0.00982611895512411,0.15255250059398187,-0.025793285481199208,-0.08279652567934564
-0.027925268031909273,0.23736477827122882,0.2743657584135086,6.235394958333333,-0.08989429166666667,-1.22583125,-0.0025777422858049765,0.0212799742605337,0.07684054076841942,-0.02559540815813044,0.12433361564350862,0.058080463256082425,-0.004939307544986735,0.006404096033104767,-0.0014544329740663955,0.04626216245433315,-0.09130592358622808,-0.013558243992711926
-0.01815142422074103,0.22479840765686968,0.2778564169174973,6.145500666666667,0.08989429166666667,-1.1931424166666666,-0.0025777422858049765,0.0212799742605337,0.07684054076841942,-0.02559540815813044,0.12433361564350862,0.058080463256082425,-0.0019226584974649426,0.006121985420381151,-0.004158276028870815,0.09137938277534019,-0.009622622906016218,-0.030274669805229807
-0.013962634015954637,0.21223203704251048,0.28623399732707,5.965712083333332,0.10623870833333333,-1.12776475,-0.0025777422858049765,0.0212799742605337,0.07684054076841942,-0.02559540815813044,0.12433361564350862,0.058080463256082425,-0.0024233184988109715,0.006289216359106864,-0.00038968562862100266,0.025800660598125146,-0.026000410836647118,0.014322460769504244
-0.009075712110370514,0.1996656664281513,0.2869321290278678,5.916678833333333,0.15527195833333335,-1.1522813749999998,-0.0025777422858049765,0.0212799742605337,0.07684054076841942,-0.02559540815813044,0.12433361564350862,0.058080463256082425,-0.0029237044150703063,0.00754601756472913,-0.005103004577775577,0.0667168807037095,0.027060113925208615,-0.006189778675370645
-0.003490658503988659,0.1850049007113989,0.296705972839036,5.785923499999999,0.0980665,-1.1359369583333332,-0.0025777422858049765,0.0212799742605337,0.07684054076841942,-0.02559540815813044,0.12433361564350862,0.058080463256082425,-0.003244727280743996,0.005492147272983256,-0.0004152340714078895,-0.02742691478608141,-0.042521968803734246,-0.03497544210912392
0.003490658503988659,0.17383479349863523,0.2981022362406315,5.843128958333333,0.17978858333333333,-1.0623870833333333,-0.0025777422858049765,0.0212799742605337,0.07684054076841942,-0.02559540815813044,0.12433361564350862,0.058080463256082425,0.0006686299289643998,0.010430826347873266,-0.0032786701477516725,0.04607672574057777,0.006450505213887656,-0.01075346326470293
0.0013962634015954637,0.15289084247470325,0.3043854215478111,5.753234666666667,0.16344416666666667,-1.0378704583333334,-0.0025777422858049765,0.0212799742605337,0.07684054076841942,-0.02559540815813044,0.12433361564350862,0.058080463256082425,0.00391268188748201,0.010487742353089552,0.006242033458492074,-0.10897988081580022,-0.08753502093212612,0.005293095698380452
-0.006283185307179587,0.13124875974997358,0.2918190509334519,5.973884291666666,0.3350605416666666,-1.0460426666666667,-0.0025777422858049765,0.0212799742605337,0.07684054076841942,-0.02559540815813044,0.12433361564350862,0.058080463256082425,0.0069809998720996675,0.010758152705382813,0.005612970348368888,-0.02746513749930184,-0.0586084278260652,0.02958682069008017
-0.02024581932313422,0.11030480872604163,0.28064894372068816,6.03108975,0.4494714583333333,-1.103248125,-0.0025777422858049765,0.0212799742605337,0.07684054076841942,-0.02559540815813044,0.12433361564350862,0.058080463256082425,0.009462232462416302,0.0066881235562571755,0.011175143692809057,0.12140982518327163,-0.25299315272648437,-0.12189226376604843
-0.03839724354387525,0.09564404300928926,0.260403124397554,6.210878333333333,0.44129925,-1.1931424166666666,-0.0025777422858049765,0.0212799742605337,0.07684054076841942,-0.02559540815813044,0.12433361564350862,0.058080463256082425,0.006184129911402391,0.006718076617453248,0.00832542907226605,-0.01914859667240646,0.0520712731446883,0.0046193653362485605
-0.050963614158234416,0.08237954069413235,0.24294983187761068,6.251739374999999,0.3350605416666666,-1.201314625,-0.0025777422858049765,0.0212799742605337,0.07684054076841942,-0.02559540815813044,0.12433361564350862,0.058080463256082425,0.0035074153526228695,0.007668503022342952,0.009546253367164546,-0.06860404405516081,0.0524470368813209,0.020881519567274673
-0.05794493116621174,0.06702064327658225,0.2241002759560719,6.390666916666666,0.22882183333333334,-1.2421756666666668,-0.0025777422858049765,0.0212799742605337,0.07684054076841942,-0.02559540815813044,0.12433361564350862,0.058080463256082425,-0.0004855946396141542,0.008315239135140658,0.0038884898637026777,0.05001213138726679,0.06905392738709144,0.016167135800485368
-0.056548667764616284,0.05026548245743669,0.21642082724729686,6.292600416666667,0.08989429166666667,-1.2748645,-0.0025777422858049765,0.0212799742605337,0.07684054076841942,-0.02559540815813044,0.12433361564350862,0.058080463256082425,0.0012389700962601726,0.005819150607944647,0.006337339627642432,-0.04827690059257991,0.003702934740046966,0.04478737579813333
-0.059341194567807204,0.03839724354387525,0.20385445663293766,6.390666916666666,0.08172208333333333,-1.3647587916666666,-0.0025777422858049765,0.0212799742605337,0.07684054076841942,-0.02559540815813044,0.12433361564350862,0.058080463256082425,-0.0011911211736593205,0.006456797245715204,0.002613585441675495,0.057943557016736896,0.061182296993242735,-0.020761777949785832
-0.057246799465414,0.02583087292951608,0.19896753472735357,6.276256,-0.04086104166666667,-1.32389775,-0.0025777422858049765,0.0212799742605337,0.07684054076841942,-0.02559540815813044,0.12433361564350862,0.058080463256082425,-0.003494861486964184,0.008206177302712473,-7.754948169816631e-05,-0.052373864832291034,-0.016553184708783794,0.023884396563940192
-0.05026548245743669,0.009075712110370514,0.19896753472735357,6.382494708333334,-0.008172208333333333,-1.3729310000000001,-0.0025777422858049765,0.0212799742605337,0.07684054076841942,-0.02559540815813044,0.12433361564350862,0.058080463256082425,-0.006090262021685308,0.004128118201675169,-0.001180096018681327,0.09069755533145005,0.02843677107971106,-0.04982525503417676
-0.03769911184307752,0.0006981317007977319,0.2017600615305445,6.202706124999999,-0.06537766666666667,-1.2748645,-0.0025777422858049765,0.0212799742605337,0.07684054076841942,-0.02559540815813044,0.12433361564350862,0.058080463256082425,-0.005766608199329175,0.011409286625578037,0.0009284930824882418,-0.0035765234844481746,-0.024746130622890335,-0.03387420552542059
-0.02652900463031381,-0.02234021442552742,0.1996656664281513,6.210878333333333,-0.016344416666666667,-1.2094868333333333,-0.0025777422858049765,0.0212799742605337,0.07684054076841942,-0.02559540815813044,0.12433361564350862,0.058080463256082425,-0.00783122369012901,0.004710851207061025,0.0002139276608988051,0.07413486162568023,-0.020618023772680516,-0.009500274948815448
-0.010471975511965976,-0.031415926535897934,0.1996656664281513,6.063778583333333,0.024516625,-1.1931424166666666,-0.0025777422858049765,0.0212799742605337,0.07684054076841942,-0.02559540815813044,0.12433361564350862,0.058080463256082425,-0.0030095519830426964,0.008158021002032792,0.002488078716940289,-0.044196153551859935,-0.06560267521800638,0.01489788233994218
