angular_velocity_x,angular_velocity_y,angular_velocity_z,linear_acceleration_x,linear_acceleration_y,linear_acceleration_z,fake_gyro_bias_x,fake_gyro_bias_y,fake_gyro_bias_z,fake_acc_bias_x,fake_acc_bias_y,fake_acc_bias_z,fake_gyro_noise_x,gyro_noise_y,gyro_noise_z,fake_acc_noise_x,fake_acc_noise_y,fake_acc_noise_z
-0.001745329238474369,0.0,-0.001745329238474369,-1.1840459173713518,-9.27623984910246,-2.536084184913992,-0.0001462021850237181,0.0012610959329558697,-0.0018988763129704558,0.08324867797181797,0.08858246145790764,0.0021926710321690133,0.0,0.0,0.0,0.0,0.0,0.0
0.0,0.0,-0.005235987715423107,-1.174170193791018,-9.310804881633628,-2.521270599543491,-0.0001462021850237181,0.0012610959329558697,-0.0018988763129704558,0.08324867797181797,0.08858246145790764,0.0021926710321690133,0.0,0.0,0.0,0.0,0.0,0.0
0.0,-0.001745329238474369,-0.005235987715423107,-1.16833932444314,-9.33458285287162,-2.5105023384094234,-0.0001462021850237181,0.0012610959329558697,-0.0018988763129704558,0.08324867797181797,0.08858246145790764,0.0021926710321690133,0.0,0.0,0.0,0.0,0.0,0.0
0.0,0.0,-0.005235987715423107,-1.1732753062173957,-9.329646871097363,-2.510502338409424,-0.0001462021850237181,0.0012610959329558697,-0.0018988763129704558,0.08324867797181797,0.08858246145790764,0.0021926710321690133,0.0,0.0,0.0,0.0,0.0,0.0
0.0,0.0,-0.005235987715423107,-1.172552626364688,-9.32329396297499,-2.511917452564018,-0.0001462021850237181,0.0012610959329558697,-0.0018988763129704558,0.08324867797181797,0.08858246145790764,0.0021926710321690133,0.0,0.0,0.0,0.0,0.0,0.0
-0.001745329238474369,0.003490658476948738,-0.003490658476948738,-1.157738280961329,-9.31341777272436,-2.5168555476893335,-0.0001462021850237181,0.0012610959329558697,-0.0018988763129704558,0.08324867797181797,0.08858246145790764,0.0021926710321690133,0.0,0.0,0.0,0.0,0.0,0.0
-0.003490658476948738,0.005235987715423107,-0.001745329238474369,-1.148861973942243,-9.306510925292969,-2.5203089714050293,-0.0001462021850237181,0.0012610959329558697,-0.0018988763129704558,0.08324867797181797,0.08858246145790764,0.0021926710321690133,0.0,0.0,0.0,0.0,0.0,0.0
-0.005235987715423107,0.005235987715423107,0.0,-1.153797069617925,-9.306510925292969,-2.5203089714050293,-0.0001462021850237181,0.0012610959329558697,-0.0018988763129704558,0.08324867797181797,0.08858246145790764,0.0021926710321690133,0.0,0.0,0.0,0.0,0.0,0.0
-0.005235987715423107,0.003490658476948738,0.0,-1.1618333065897144,-9.300312809892507,-2.5280566156556072,-0.0001462021850237181,0.0012610959329558697,-0.0018988763129704558,0.08324867797181797,0.08858246145790764,0.0021926710321690133,0.0,0.0,0.0,0.0,0.0,0.0
-0.006981316953897476,0.001745329238474369,0.0,-1.1766447720769428,-9.280564189242869,-2.552742391467654,-0.0001462021850237181,0.0012610959329558697,-0.0018988763129704558,0.08324867797181797,0.08858246145790764,0.0021926710321690133,0.0,0.0,0.0,0.0,0.0,0.0
-0.006981316953897476,0.0,0.0,-1.186604619026184,-9.268902617005915,-2.566105688992319,-0.0001462021850237181,0.0012610959329558697,-0.0018988763129704558,0.08324867797181797,0.08858246145790764,0.0021926710321690133,0.0,0.0,0.0,0.0,0.0,0.0
-0.006981316953897476,0.0,-0.001745329238474369,-1.186604619026184,-9.273838598780172,-2.5562337254438074,-0.0001462021850237181,0.0012610959329558697,-0.0018988763129704558,0.08324867797181797,0.08858246145790764,0.0021926710321690133,0.0,0.0,0.0,0.0,0.0,0.0
-0.005235987715423107,0.001745329238474369,-0.001745329238474369,-1.1832331041494053,-9.278776783744542,-2.551414627830235,-0.0001462021850237181,0.0012610959329558697,-0.0018988763129704558,0.08324867797181797,0.08858246145790764,0.0021926710321690133,0.0,0.0,0.0,0.0,0.0,0.0
-0.005235987715423107,0.001745329238474369,-0.001745329238474369,-1.1733554869448772,-9.283715592346805,-2.556353436432499,-0.0001462021850237181,0.0012610959329558697,-0.0018988763129704558,0.08324867797181797,0.08858246145790764,0.0021926710321690133,0.0,0.0,0.0,0.0,0.0,0.0
-0.005235987715423107,0.001745329238474369,0.0,-1.1722607149138768,-9.290410567221027,-2.561291957347086,-0.0001462021850237181,0.0012610959329558697,-0.0018988763129704558,0.08324867797181797,0.08858246145790764,0.0021926710321690133,0.0,0.0,0.0,0.0,0.0,0.0
-0.005235987715423107,0.0,0.0,-1.1870651125736538,-9.300280165660878,-2.566226756567011,-0.0001462021850237181,0.0012610959329558697,-0.0018988763129704558,0.08324867797181797,0.08858246145790764,0.0021926710321690133,0.0,0.0,0.0,0.0,0.0,0.0
-0.005235987715423107,0.0,0.0,-1.200053782849297,-9.304689659879216,-2.5729847114891164,-0.0001462021850237181,0.0012610959329558697,-0.0018988763129704558,0.08324867797181797,0.08858246145790764,0.0021926710321690133,0.0,0.0,0.0,0.0,0.0,0.0
-0.005235987715423107,0.0,0.0,-1.2099295064296307,-9.299751798089048,-2.5828605551186037,-0.0001462021850237181,0.0012610959329558697,-0.0018988763129704558,0.08324867797181797,0.08858246145790764,0.0021926710321690133,0.0,0.0,0.0,0.0,0.0,0.0
-0.005235987715423107,0.001745329238474369,0.0,-1.2103537218026594,-9.296704292297363,-2.590845906196294,-0.0001462021850237181,0.0012610959329558697,-0.0018988763129704558,0.08324867797181797,0.08858246145790764,0.0021926710321690133,0.0,0.0,0.0,0.0,0.0,0.0
-0.003490658476948738,0.001745329238474369,0.0,-1.195539436426714,-9.296704292297363,-2.5957840013216087,-0.0001462021850237181,0.0012610959329558697,-0.0018988763129704558,0.08324867797181797,0.08858246145790764,0.0021926710321690133,0.0,0.0,0.0,0.0,0.0,0.0
-0.003490658476948738,0.001745329238474369,-0.001745329238474369,-1.1826894858915857,-9.298661858864662,-2.5987622737884517,-0.0001462021850237181,0.0012610959329558697,-0.0018988763129704558,0.08324867797181797,0.08858246145790764,0.0021926710321690133,0.0005442036658991682,0.0013021304586572464,0.00011035961012827991,0.01018197394776008,0.014204123750484571,-0.029658823524737435
-0.003490658476948738,0.0,-0.001745329238474369,-1.172813762311252,-9.303599720654828,-2.598762273788452,-0.0001462021850237181,0.0012610959329558697,-0.0018988763129704558,0.08324867797181797,0.08858246145790764,0.0021926710321690133,0.0005442035714955142,-0.0004431987796726707,0.00011035110997284659,0.020063982566762475,0.00924107797122899,-0.029569864024896104
-0.005235987715423107,0.0,-0.001745329238474369,-1.1730698678615736,-9.304484753684102,-2.594709881310493,-0.0001462021850237181,0.0012610959329558697,-0.0018988763129704558,0.08324867797181797,0.08858246145790764,0.0021926710321690133,-0.001201125667046848,-0.00044319868534959067,0.00011035289790429634,0.019814162234634697,0.008330860085681109,-0.02542851230528465
-0.005235987715423107,-0.001745329238474369,-0.001745329238474369,-1.1878784945437253,-9.299548544790051,-2.584837343513423,-0.0001462021850237181,0.0012610959329558697,-0.0018988763129704558,0.08324867797181797,0.08858246145790764,0.0021926710321690133,-0.0010821387723819061,-0.0017769486996964128,0.0009388035582849444,0.0053866602867528425,4.160635758811254e-05,-0.014276921825142617
-0.005235987715423107,-0.001745329238474369,-0.001745329238474369,-1.1943197343208336,-9.290429739194495,-2.583331855629492,-0.0001462021850237181,0.0012610959329558697,-0.0018988763129704558,0.08324867797181797,0.08858246145790764,0.0021926710321690133,-0.001013676579204315,-0.0015401401825621802,0.0014154762047308969,-0.0008494300642985632,0.0015420351349539707,-0.011996474683125995
-0.005235987715423107,0.0,-0.003490658476948738,-1.1893818725306669,-9.275616153823997,-2.593207699258979,-0.0001462021850237181,0.0012610959329558697,-0.0018988763129704558,0.08324867797181797,0.08858246145790764,0.0021926710321690133,-0.0010136825431236044,0.00020519796648078191,-0.0003298441236741879,0.004068230834944146,0.016333377967856895,-0.021781224069252366
-0.003490658476948738,0.0,-0.003490658476948738,-1.1779621596191245,-9.271605609881915,-2.6030834903598206,-0.0001462021850237181,0.0012610959329558697,-0.0018988763129704558,0.08324867797181797,0.08858246145790764,0.0021926710321690133,0.0007316466955805607,0.0002052007239056349,-0.00032984732830337583,0.015467747105593524,0.020321682612467046,-0.03156593841933227
-0.003490658476948738,0.0,-0.001745329238474369,-1.1582181725203777,-9.281477573430427,-2.6129554539083317,-0.0001462021850237181,0.0012610959329558697,-0.0018988763129704558,0.08324867797181797,0.08858246145790764,0.0021926710321690133,-0.0007271057321679738,1.8555018181877083e-05,0.0007917048953769458,0.03237063603996885,0.018515563699053397,-0.037128288309751956
-0.001745329238474369,0.0,-0.001745329238474369,-1.1540595301098568,-9.28912483770237,-2.613921182978439,-0.0001462021850237181,0.0012610959329558697,-0.0018988763129704558,0.08324867797181797,0.08858246145790764,0.0021926710321690133,0.00020448657127152407,-8.555530904234655e-05,0.0004437422671448746,0.03494895024272158,0.01536518222636875,-0.03568327672044767
-0.001745329238474369,0.0,-0.001745329238474369,-1.1688703264869584,-9.294061749823726,-2.604047358735727,-0.0001462021850237181,0.0012610959329558697,-0.0018988763129704558,0.08324867797181797,0.08858246145790764,0.0021926710321690133,0.00020448657100701943,-8.555530870622981e-05,0.00044374226711319567,0.02013892441966219,0.010417536083030225,-0.025770759595235313
-0.001745329238474369,0.0,-0.001745329238474369,-1.1859725848425102,-9.296704292297363,-2.598762273788452,-0.0001462021850237181,0.0012610959329558697,-0.0018988763129704558,0.08324867797181797,0.08858246145790764,0.0021926710321690133,0.00020448657101702694,-8.555530863298447e-05,0.0004437422672394788,0.0030374365931931783,0.007764261456411481,-0.020446989181382214
-0.001745329238474369,0.0,-0.001745329238474369,-1.205712727584347,-9.296704292297363,-2.598762273788452,-0.0001462021850237181,0.0012610959329558697,-0.0018988763129704558,0.08324867797181797,0.08858246145790764,0.0021926710321690133,-0.0005083143280696362,-0.0014090458171725783,-0.0005089244219151206,-0.00449546608009647,0.013701723782515711,-0.022999744000697767
0.0,0.001745329238474369,-0.001745329238474369,-1.2065872904393515,-9.296704292297363,-2.598762273788452,-0.0001462021850237181,0.0012610959329558697,-0.0018988763129704558,0.08324867797181797,0.08858246145790764,0.0021926710321690133,0.0008519310287811255,-0.0003787250963777635,-0.0010235938997361167,0.0012390821847051766,0.016906012515355565,-0.024373578361136634
-0.001745329238474369,0.001745329238474369,0.0,-1.1868349099380908,-9.296704292297363,-2.598762273788452,-0.0001462021850237181,0.0012610959329558697,-0.0018988763129704558,0.08324867797181797,0.08858246145790764,0.0021926710321690133,-0.0008934000960031426,-0.0003787240661181061,0.0007217334522817355,0.02101361801550314,0.0168976501999425,-0.024354165258125074
-0.001745329238474369,0.001745329238474369,0.0,-1.1865101663340514,-9.303988427524967,-2.60119031886432,-0.0001462021850237181,0.0012610959329558697,-0.0018988763129704558,0.08324867797181797,0.08858246145790764,0.0021926710321690133,-0.000893400095738485,-0.0003787240661306214,0.0007217334527823015,0.021360514773839788,0.009605153353163046,-0.026762799045512348
0.0,0.001745329238474369,0.0,-1.2062503090758883,-9.318793534581346,-2.6061253545497793,-0.0001462021850237181,0.0012610959329558697,-0.0018988763129704558,0.08324867797181797,0.08858246145790764,0.0021926710321690133,0.0004622477028312717,-0.0008871586418618712,0.0006916977755712148,0.012845984503676355,-0.013407839090218155,-0.024265941186910472
-0.001745329238474369,0.001745329238474369,0.0,-1.2185177919564205,-9.313657973106249,-2.611062150419644,-0.0001462021850237181,0.0012610959329558697,-0.0018988763129704558,0.08324867797181797,0.08858246145790764,0.0021926710321690133,-0.0014867892940070098,-0.0011529403264078323,0.0006759914976250841,0.006454659333182621,-0.012564615015647226,-0.025315902994286352
-0.001745329238474369,0.003490658476948738,0.0,-1.2234540608549551,-9.288976928635996,-2.615998359313694,-0.0001462021850237181,0.0012610959329558697,-0.0018988763129704558,0.08324867797181797,0.08858246145790764,0.0021926710321690133,-0.0014867866214979047,0.0005923889126171329,0.0006759917423132168,0.0015365357971969704,0.012111694876816603,-0.030244106368617706
0.0,0.003490658476948738,0.0,-1.2181509664595753,-9.277091026306152,-2.6158154489003653,-0.0001462021850237181,0.0012610959329558697,-0.0018988763129704558,0.08324867797181797,0.08858246145790764,0.0021926710321690133,0.00025854261705312946,0.0005923862393360867,0.0006759953212353442,0.006857780690196173,0.023992861218800187,-0.030053188076059157
0.0,0.001745329238474369,-0.001745329238474369,-1.2033401604234313,-9.277091026306152,-2.6108785335593416,-0.0001462021850237181,0.0012610959329558697,-0.0018988763129704558,0.08324867797181797,0.08858246145790764,0.0021926710321690133,-0.002516872008200126,0.0008231878854712446,0.0009300839472567717,-0.009051564691431885,0.02157752877125717,-0.04309712410115425
0.001745329238474369,0.0,-0.003490658476948738,-1.1859081065130292,-9.284968385437722,-2.600691483814445,-0.0001462021850237181,0.0012610959329558697,-0.0018988763129704558,0.08324867797181797,0.08858246145790764,0.0021926710321690133,-0.002174368470993289,7.668546444944417e-05,0.00019535831714945573,-0.007172176380364923,0.012501269590099048,-0.042066150542337324
0.003490658476948738,0.0,-0.003490658476948738,-1.1661576059375802,-9.29978126086931,-2.5858784883394574,-0.0001462021850237181,0.0012610959329558697,-0.0018988763129704558,0.08324867797181797,0.08858246145790764,0.0021926710321690133,-0.0004290392326085512,7.668937088158186e-05,0.0001953553928311911,0.012544888696779008,-0.002279876872751202,-0.02735297501311365
0.005235987715423107,0.0,-0.003490658476948738,-1.1571847200393677,-9.293040843601512,-2.5764547530403705,-0.0001462021850237181,0.0012610959329558697,-0.0018988763129704558,0.08324867797181797,0.08858246145790764,0.0021926710321690133,0.0013162900060476566,7.669327772578113e-05,0.00019535246848924442,0.021484338620167784,0.004492268197506986,-0.018029059870887036
0.005235987715423107,-0.001745329238474369,-0.003490658476948738,-1.1571847200393677,-9.268353917326934,-2.5715173677854555,-0.0001462021850237181,0.0012610959329558697,-0.0018988763129704558,0.08324867797181797,0.08858246145790764,0.0021926710321690133,0.0013413238265144306,-0.001358921598386191,-0.00018592082453990788,0.015630964491783132,0.030631172417433898,-0.02620773011000697
0.005235987715423107,-0.001745329238474369,-0.003490658476948738,-1.159944451130626,-9.265756953588717,-2.5693421363830566,-0.0001462021850237181,0.0012610959329558697,-0.0018988763129704558,0.08324867797181797,0.08858246145790764,0.0021926710321690133,0.00135355955094757,-0.0012075124633124199,-0.0003723190264638984,0.01000347905088607,0.03395257171779393,-0.030495889699242273
0.005235987715423107,0.0,-0.003490658476948738,-1.1648820762744883,-9.280569829020303,-2.5693421363830566,-0.0001462021850237181,0.0012610959329558697,-0.0018988763129704558,0.08324867797181797,0.08858246145790764,0.0021926710321690133,0.0013535568851243706,0.0005378167752896555,-0.00037232783268756385,0.005048626595863753,0.019169165357918006,-0.030596274097607234
0.001745329238474369,0.0,-0.001745329238474369,-1.161335435063982,-9.2982094264909,-2.5636862527884854,-0.0001462021850237181,0.0012610959329558697,-0.0018988763129704558,0.08324867797181797,0.08858246145790764,0.0021926710321690133,-0.0021370976593131905,0.000537820250494252,0.0013730092704853961,0.008578039952875857,0.0015590358934247945,-0.025040775121152613
0.001745329238474369,0.0,-0.001745329238474369,-1.1514606045353675,-9.317958967510561,-2.553811482278655,-0.0001462021850237181,0.0012610959329558697,-0.0018988763129704558,0.08324867797181797,0.08858246145790764,0.0021926710321690133,0.00014235532173359635,6.850639144640282e-05,0.0013600906948606803,0.026553980358253217,0.0039489856360332,-0.02792901630818801
0.001745329238474369,0.0,-0.001745329238474369,-1.153166294589226,-9.32612419128418,-2.546834724605066,-0.0001462021850237181,0.0012610959329558697,-0.0018988763129704558,0.08324867797181797,0.08858246145790764,0.0021926710321690133,0.001219909427199519,-0.00015334825631888122,0.0013539824569301427,0.028665965630785575,0.006250583244724308,-0.02698366367159616
0.0,0.0,-0.003490658476948738,-1.1630416048986507,-9.32612419128418,-2.5418970994612042,-0.0001462021850237181,0.0012610959329558697,-0.0018988763129704558,0.08324867797181797,0.08858246145790764,0.0021926710321690133,-0.0005254222329020837,-0.0001533523483311296,-0.00039134436024790834,0.01876932547878679,0.006258629986818594,-0.022065397622309805
0.0,0.0,-0.003490658476948738,-1.178842973337738,-9.320198381132798,-2.542885142471931,-0.0001462021850237181,0.0012610959329558697,-0.0018988763129704558,0.08324867797181797,0.08858246145790764,0.0021926710321690133,-0.0005254222326822364,-0.00015335234824651614,-0.00039134436022141244,0.002946627119219166,0.012192486783590209,-0.02307279968197427
0.0,0.0,-0.003490658476948738,-1.1985925404824942,-9.31032359756042,-2.5478225342581204,-0.0001462021850237181,0.0012610959329558697,-0.0018988763129704558,0.08324867797181797,0.08858246145790764,0.0021926710321690133,-0.00025208374268695285,-0.00017955585989781354,-0.0017006669783555882,0.0006820405344944037,-0.002063850451962955,-0.02769041641568375
0.0,0.0,-0.001745329238474369,-1.2001582345719388,-9.297421449624785,-2.5436692199463895,-0.0001462021850237181,0.0012610959329558697,-0.0018988763129704558,0.08324867797181797,0.08858246145790764,0.0021926710321690133,-0.00012713072973262796,-0.0001915340147878019,-0.0005538698154302314,0.0071284129162437855,-0.00019429914657029943,-0.02339493030841561
0.0,0.0,0.0,-1.1902834575314603,-9.282609284064067,-2.533794442905911,-0.0001462021850237181,0.0012610959329558697,-0.0018988763129704558,0.08324867797181797,0.08858246145790764,0.0021926710321690133,-0.0001271283919436835,-0.0001915334173730872,0.0011914594228590346,0.017026579045654418,0.014617306622030538,-0.01353003671385395
0.0,0.0,0.0,-1.1927999637678615,-9.277091026306152,-2.5425062938839895,-0.0001462021850237181,0.0012610959329558697,-0.0018988763129704558,0.08324867797181797,0.08858246145790764,0.0021926710321690133,-0.00012712839177922474,-0.00019153341728268993,0.001191459422960381,0.014533461870717244,0.020135004539618914,-0.022251771200128227
0.0,0.0,0.0,-1.2026737944499095,-9.277091026306152,-2.5622539552480856,-0.0001462021850237181,0.0012610959329558697,-0.0018988763129704558,0.08324867797181797,0.08858246145790764,0.0021926710321690133,-0.0018231813800817472,-0.002127770838368724,0.0013124729690029687,0.014117946050440311,0.011489337286269248,-0.049702687555366436
0.001745329238474369,0.0,0.0,-1.2093814817915824,-9.273927429531966,-2.5535241525121197,-0.0001462021850237181,0.0012610959329558697,-0.0018988763129704558,0.08324867797181797,0.08858246145790764,0.0021926710321690133,-0.0008268167915222391,-0.002982798879968394,0.0013659166822641026,0.011584962485131156,0.010845789683090664,-0.044413609001087255
0.003490658476948738,0.001745329238474369,0.0,-1.214319813585727,-9.268989097737819,-2.5288324935413966,-0.0001462021850237181,0.0012610959329558697,-0.0018988763129704558,0.08324867797181797,0.08858246145790764,0.0021926710321690133,0.0009185136129719726,-0.0012374708073499287,0.0013659145024778822,0.0066483141482398265,0.015799481026025793,-0.019780154040397447
0.001745329238474369,0.005235987715423107,-0.001745329238474369,-1.212791985580154,-9.270516925743394,-2.5203089714050293,-0.0001462021850237181,0.0012610959329558697,-0.0018988763129704558,0.08324867797181797,0.08858246145790764,0.0021926710321690133,-0.0008268095326006143,0.0022531828930484133,-0.0003794303828266817,0.008177825562080208,0.014287009247076309,-0.011314824932273586
0.001745329238474369,0.005235987715423107,-0.003490658476948738,-1.2078543604362917,-9.275454550887256,-2.5203089714050293,-0.0001462021850237181,0.0012610959329558697,-0.0018988763129704558,0.08324867797181797,0.08858246145790764,0.0021926710321690133,0.0003790183681616704,0.002085874153671324,-0.000429468211468727,-0.015189366112132048,0.04908370069190858,-0.01988439263647411
0.0,0.005235987715423107,-0.003490658476948738,-1.1897207453986194,-9.300187021772437,-2.5203089714050293,-0.0001462021850237181,0.0012610959329558697,-0.0018988763129704558,0.08324867797181797,0.08858246145790764,0.0021926710321690133,-0.0008519410899670394,0.0020145053809655276,0.0002936935075171959,-0.009169785471068016,0.041307385414625114,-0.023544840828946003
0.0,0.003490658476948738,-0.003490658476948738,-1.1650314364477854,-9.334752054303605,-2.5203089714050293,-0.0001462021850237181,0.0012610959329558697,-0.0018988763129704558,0.08324867797181797,0.08858246145790764,0.0021926710321690133,-0.0008519369680983079,0.0002691761424711201,0.000293695689577605,0.015462710794122963,0.0067545703569547085,-0.02356221355904475
0.0,0.001745329238474369,-0.003490658476948738,-1.1605535470935466,-9.349106284329569,-2.5203089714050293,-0.0001462021850237181,0.0012610959329558697,-0.0018988763129704558,0.08324867797181797,0.08858246145790764,0.0021926710321690133,-0.0008519328465306085,-0.001476153095849111,0.000293697871612794,0.019883787490330734,-0.0075874425072921525,-0.02357958659869157
0.0,0.0,-0.003490658476948738,-1.165491172237409,-9.354043909473432,-2.5203089714050293,-0.0001462021850237181,0.0012610959329558697,-0.0018988763129704558,0.08324867797181797,0.08858246145790764,0.0021926710321690133,-0.0011695785942983038,-0.0007437228568223354,0.00023716434758962827,0.011378581696476842,-0.04292493602161209,-0.032510949719169166
0.001745329238474369,0.0,-0.005235987715423107,-1.1704270821122738,-9.32462252857529,-2.5168732423277285,-0.0001462021850237181,0.0012610959329558697,-0.0018988763129704558,0.08324867797181797,0.08858246145790764,0.0021926710321690133,0.0004450132285312869,0.00027602214847244555,-0.0015314376311908898,0.004958013684759314,-0.026005971083153896,-0.03277641238179709
0.0,-0.001745329238474369,-0.003490658476948738,-1.1753644738984628,-9.280186002499589,-2.5119358505415397,-0.0001462021850237181,0.0012610959329558697,-0.0018988763129704558,0.08324867797181797,0.08858246145790764,0.0021926710321690133,-0.0013003087030048072,-0.0014693078753220351,0.00021389812947657846,-1.2259699316611005e-05,0.018445254615111806,-0.027877875200577662
0.0,-0.001745329238474369,-0.003490658476948738,-1.169788682642461,-9.263779741616489,-2.5034930350213065,-0.0001462021850237181,0.0012610959329558697,-0.0018988763129704558,0.08324867797181797,0.08858246145790764,0.0021926710321690133,-0.00130030870325564,-0.0014693078751709407,0.00021389812896817446,0.005530643482497774,0.03486621762982089,-0.019473921609306975
0.0,0.0,-0.001745329238474369,-1.1599134323547364,-9.258842116472627,-2.4936177847335816,-0.0001462021850237181,0.0012610959329558697,-0.0018988763129704558,0.08324867797181797,0.08858246145790764,0.0021926710321690133,-0.00020768779946078717,-0.0015272148868902677,0.0003927103608967915,0.009545598625215763,0.03753519730175457,-0.0147578882179436
0.0,0.001745329238474369,-0.001745329238474369,-1.1571847200393677,-9.271764001222415,-2.4944606326450813,-0.0001462021850237181,0.0012610959329558697,-0.0018988763129704558,0.08324867797181797,0.08858246145790764,0.0021926710321690133,0.00022619335184014536,-0.0004979519966349116,-0.00022935150397735747,0.009952975661816852,0.023709541522082475,-0.01764151211139513
0.0,0.003490658476948738,0.0,-1.1571847200393677,-9.291515448383082,-2.499398494435248,-0.0001462021850237181,0.0012610959329558697,-0.0018988763129704558,0.08324867797181797,0.08858246145790764,0.0021926710321690133,0.00022619204171972048,0.0012473770669099882,0.0015159779093047506,0.009955876982150369,0.003956398416291755,-0.022574417469025124
-0.001745329238474369,0.001745329238474369,-0.001745329238474369,-1.1644646260419513,-9.293064339296071,-2.50433565841511,-0.0001462021850237181,0.0012610959329558697,-0.0018988763129704558,0.08324867797181797,0.08858246145790764,0.0021926710321690133,-0.001519135886743893,-0.0004979511597549151,-0.0002293536511355146,0.002678872286079535,0.0024058115543974935,-0.027506625009563433
-0.001745329238474369,0.0,-0.001745329238474369,-1.1743393965517819,-9.288126954041156,-2.5092730436700257,-0.0001462021850237181,0.0012610959329558697,-0.0018988763129704558,0.08324867797181797,0.08858246145790764,0.0021926710321690133,0.000901489710212482,-0.0007146905098422086,-0.001225739682840365,0.008407865055755536,0.01273811984326433,-0.010157791412324407
-0.003490658476948738,-0.001745329238474369,0.0,-1.1842142933568824,-9.286897659301758,-2.5216267993988795,-0.0001462021850237181,0.0012610959329558697,-0.0018988763129704558,0.08324867797181797,0.08858246145790764,0.0021926710321690133,8.173095428347363e-05,-0.0018755392933769602,0.0001385992524129172,0.004534126584777778,0.016010796038213728,-0.013934812346152027
-0.005235987715423107,0.0,0.0,-1.1940848438300784,-9.286897659301758,-2.5364326251086733,-0.0001462021850237181,0.0012610959329558697,-0.0018988763129704558,0.08324867797181797,0.08858246145790764,0.0021926710321690133,-0.001663594438160526,-0.00013020620745834893,0.00013860920978830737,-0.0052879285974589746,0.015983660215916348,-0.02866368015537192
-0.005235987715423107,0.0,0.0,-1.1888620481312833,-9.294446863192263,-2.5399222373962402,-0.0001462021850237181,0.0012610959329558697,-0.0018988763129704558,0.08324867797181797,0.08858246145790764,0.0021926710321690133,-0.0016635944382308381,-0.00013020620721659903,0.0001386092099400179,-1.6614418538267104e-05,0.008407306708036329,-0.03207629826957593
-0.005235987715423107,0.0,0.0,-1.178985384542994,-9.304323526780554,-2.5399222373962402,-0.0001462021850237181,0.0012610959329558697,-0.0018988763129704558,0.08324867797181797,0.08858246145790764,0.0021926710321690133,-0.0014559418464108833,-0.001945817668785778,-4.209062738396798e-05,0.01744184167314191,0.012221134494953762,-0.023433626881576207
-0.005235987715423107,0.001745329238474369,0.0,-1.188322072001696,-9.306510925292969,-2.5399222373962402,-0.0001462021850237181,0.0012610959329558697,-0.0018988763129704558,0.08324867797181797,0.08858246145790764,0.0021926710321690133,-0.00137934142448294,-0.0008702198588997919,-0.00010874094429191176,0.0109253889765541,0.015064637425061147,-0.02018615630303637
-0.005235987715423107,0.001745329238474369,0.0,-1.203132108357973,-9.306510925292969,-2.5399222373962402,-0.0001462021850237181,0.0012610959329558697,-0.0018988763129704558,0.08324867797181797,0.08858246145790764,0.0021926710321690133,-0.0013793414241294857,-0.0008702198595683765,-0.00010874094313311152,-0.0038458790116565346,0.01503474589109416,-0.020094338339447907
-0.005235987715423107,0.001745329238474369,0.0,-1.206217885017395,-9.314327472959313,-2.547738785062583,-0.0001462021850237181,0.0012610959329558697,-0.0018988763129704558,0.08324867797181797,0.08858246145790764,0.0021926710321690133,-0.0013793414241214702,-0.0008702198596326143,-0.00010874094297806349,-0.0068928951442807735,0.007188311332502849,-0.027819085665947048
-0.003490658476948738,0.001745329238474369,0.0,-1.206217885017395,-9.32420130364136,-2.557612615744631,-0.0001462021850237181,0.0012610959329558697,-0.0018988763129704558,0.08324867797181797,0.08858246145790764,0.0021926710321690133,-0.0001941262805230556,0.0005506329478635511,0.0005810220581589857,-0.01273507008443537,-0.00012978192059402737,-0.016874173295587908
-0.003490658476948738,0.0,0.0,-1.198270498649347,-9.32612419128418,-2.5714566795478375,-0.0001462021850237181,0.0012610959329558697,-0.0018988763129704558,0.08324867797181797,0.08858246145790764,0.0021926710321690133,-0.000393218403261009,-0.0006896581182243953,0.000826190455143769,-0.006846555513688526,-0.001157941042040224,-0.023276873983420494
-0.003490658476948738,0.0,0.0,-1.1883943083987167,-9.32612419128418,-2.58627108497861,-0.0001462021850237181,0.0012610959329558697,-0.0018988763129704558,0.08324867797181797,0.08858246145790764,0.0021926710321690133,-0.00039321840302838885,-0.0006896581180339038,0.0008261904553307002,0.003058581133246878,-0.0011802215639980457,-0.038023509455889316
-0.003490658476948738,0.0,0.0,-1.186604619026184,-9.30995539411552,-2.576828944642518,-0.0001462021850237181,0.0012610959329558697,-0.0018988763129704558,0.08324867797181797,0.08858246145790764,0.0021926710321690133,-0.0003932184030986914,-0.0006896581179621878,0.0008261904553615021,0.00487721418425502,0.01496629662451939,-0.02851360581759897
-0.005235987715423107,0.0,-0.003490658476948738,-1.186604619026184,-9.290207732751423,-2.562018078593302,-0.0001462021850237181,0.0012610959329558697,-0.0018988763129704558,0.08324867797181797,0.08858246145790764,0.0021926710321690133,0.00015151021737153862,-0.0003872851938464868,-0.0007703761873468532,-0.0043748505953886034,0.005252015174364384,-0.029396198375676266
-0.005235987715423107,0.0,-0.005235987715423107,-1.186604619026184,-9.274568286769064,-2.551315921698989,-0.0001462021850237181,0.0012610959329558697,-0.0018988763129704558,0.08324867797181797,0.08858246145790764,0.0021926710321690133,0.0009341653270538096,-0.00028394097362593096,-0.0018683765602402918,-0.007560501247233381,0.01079947834889688,-0.02396033167831627
-0.006981316953897476,0.0,-0.003490658476948738,-1.186604619026184,-9.25976035083872,-2.5414439644120916,-0.0001462021850237181,0.0012610959329558697,-0.0018988763129704558,0.08324867797181797,0.08858246145790764,0.0021926710321690133,-0.0008111617759431977,-0.0002839573470954747,-0.0001230451868648078,-0.0075887878410351465,0.025573898418378996,-0.013950060585183388
-0.008726646192371845,0.0,-0.001745329238474369,-1.1740762447727058,-9.274182259319579,-2.5524506116497183,-0.0001462021850237181,0.0012610959329558697,-0.0018988763129704558,0.08324867797181797,0.08858246145790764,0.0021926710321690133,-0.0025564888784030825,-0.00028397372533922475,0.001622286187392825,0.004911292200967813,0.011118462312047517,-0.024818354946198943
-0.006981316953897476,-0.001745329238474369,-0.001745329238474369,-1.1592654987496338,-9.293929920683675,-2.5672613576727903,-0.0001462021850237181,0.0012610959329558697,-0.0018988763129704558,0.08324867797181797,0.08858246145790764,0.0021926710321690133,-0.0027338528386401627,-0.000172490660604994,0.00023701192597408812,0.003319009386317203,0.024062479358127227,-0.017650101396671888
-0.005235987715423107,-0.003490658476948738,0.0,-1.1486977433799543,-9.309434679911279,-2.5735855989210283,-0.0001462021850237181,0.0012610959329558697,-0.0018988763129704558,0.08324867797181797,0.08858246145790764,0.0021926710321690133,-0.0016202581977373238,-0.0013077349603980541,0.001527177416285747,0.008522719348434186,0.019284202499794505,-0.01671023973753397
-0.003490658476948738,-0.003490658476948738,-0.001745329238474369,-1.138826192945005,-9.32424191556543,-2.5785213441390793,-0.0001462021850237181,0.0012610959329558697,-0.0018988763129704558,0.08324867797181797,0.08858246145790764,0.0021926710321690133,0.0001250635147521827,-0.00130772819110524,-0.00021815935042288542,0.018425102527384402,0.004453580799843562,-0.021574871920042343
-0.003490658476948738,-0.003490658476948738,-0.001745329238474369,-1.159125769661109,-9.32612419128418,-2.587770627152283,-0.0001462021850237181,0.0012610959329558697,-0.0018988763129704558,0.08324867797181797,0.08858246145790764,0.0021926710321690133,0.0001250635148122878,-0.0013077281912497274,-0.00021815934980320154,-0.0018436261733637267,0.002547907254268217,-0.030753008510188074
-0.005235987715423107,-0.001745329238474369,-0.003490658476948738,-1.1838151386365199,-9.32612419128418,-2.59764647078177,-0.0001462021850237181,0.0012610959329558697,-0.0018988763129704558,0.08324867797181797,0.08858246145790764,0.0021926710321690133,0.0002863011777909559,-0.0038367134929980853,-0.0026754221961134165,0.01771294081774896,-0.019151371220118237,-0.03210907170569295
-0.006981316953897476,0.0,-0.001745329238474369,-1.2041245405433447,-9.30422435594125,-2.594382306719866,-0.0001462021850237181,0.0012610959329558697,-0.0018988763129704558,0.08324867797181797,0.08858246145790764,0.0021926710321690133,-0.0008570939189319402,-0.0034408700485755337,-0.0011548674076324904,0.011383130646373191,-0.004133119130594905,-0.026048397445333306
-0.006981316953897476,0.001745329238474369,0.0,-1.223876047728589,-9.279535046990416,-2.589444444929699,-0.0001462021850237181,0.0012610959329558697,-0.0018988763129704558,0.08324867797181797,0.08858246145790764,0.0021926710321690133,-0.0008570958225375897,-0.00169555387654967,0.0005904749022990137,-0.008351642724013779,0.020513441476391694,-0.02096285963099848
-0.006981316953897476,0.005235987715423107,0.0,-1.221384634083975,-9.281537608387485,-2.5934022228741798,-0.0001462021850237181,0.0012610959329558697,-0.0018988763129704558,0.08324867797181797,0.08858246145790764,0.0021926710321690133,-0.0008570901039029324,0.001795104599661305,0.0005905010313544754,-0.005843500988906564,0.01846814167716199,-0.024773004268897284
-0.006981316953897476,0.006981316953897476,0.0,-1.21644836518544,-9.286473817281536,-2.59833843176823,-0.0001462021850237181,0.0012610959329558697,-0.0018988763129704558,0.08324867797181797,0.08858246145790764,0.0021926710321690133,-0.0038552837507078563,0.0038733769041153603,0.0008588073162761332,0.0023403914525747783,0.0061298416279399375,-0.024671539299402006
-0.005235987715423107,0.005235987715423107,0.0,-1.2160245180130005,-9.286897659301758,-2.6032761919906946,-0.0001462021850237181,0.0012610959329558697,-0.0018988763129704558,0.08324867797181797,0.08858246145790764,0.0021926710321690133,-0.0030188616832547504,0.0022289783350624886,0.0009401381254503657,0.003756196831084495,0.00345237860773686,-0.028050857450660212
-0.003490658476948738,0.001745329238474369,0.0,-1.2160245180130005,-9.286897659301758,-2.608214053780862,-0.0001462021850237181,0.0012610959329558697,-0.0018988763129704558,0.08324867797181797,0.08858246145790764,0.0021926710321690133,-0.0012735366348148492,-0.0012616822372841121,0.0009401328903575206,0.00376744832200675,0.0034358794231234267,-0.03293436948509903
-0.001745329238474369,0.0,-0.001745329238474369,-1.2206046049196182,-9.27773759683811,-2.5994088443204095,-0.0001462021850237181,0.0012610959329558697,-0.0018988763129704558,0.08324867797181797,0.08858246145790764,0.0021926710321690133,0.00047179432262245484,-0.0030070090447471124,-0.0008051970613759669,-0.0008013916546672058,0.012579448675204446,-0.024074830998118964
-0.001745329238474369,0.0,-0.003490658476948738,-1.2255418136123268,-9.267863299484508,-2.5895345469668083,-0.0001462021850237181,0.0012610959329558697,-0.0018988763129704558,0.08324867797181797,0.08858246145790764,0.0021926710321690133,-0.001787545196369238,-0.0012986685106328958,0.0003877666221949298,-0.0299163140151105,0.03132714884497366,-0.019610065621247653
-0.001745329238474369,0.0,-0.003490658476948738,-1.2072414201874184,-9.281226738462667,-2.593603089176887,-0.0001462021850237181,0.0012610959329558697,-0.0018988763129704558,0.08324867797181797,0.08858246145790764,0.0021926710321690133,-0.002444254863532287,-0.0008021191981086634,0.0012418206565962301,-0.01869357065002288,0.020555198975970843,-0.025271071922803635
0.0,0.0,-0.005235987715423107,-1.1875012174553587,-9.296031845519044,-2.5985381248623463,-0.0001462021850237181,0.0012610959329558697,-0.0018988763129704558,0.08324867797181797,0.08858246145790764,0.0021926710321690133,-0.000698926627291415,-0.0008021148541443319,-0.0005035095844345875,0.0009829617807197615,0.005764554522132073,-0.030227440139780296
0.0,0.0,-0.005235987715423107,-1.177178671007404,-9.301417266306753,-2.594049299779062,-0.0001462021850237181,0.0012610959329558697,-0.0018988763129704558,0.08324867797181797,0.08858246145790764,0.0021926710321690133,-0.0006989266271219852,-0.0008021148542954261,-0.0005035095843153719,0.011241819612127215,0.00039359997125103274,-0.025759953639282237
0.0,0.0,-0.005235987715423107,-1.1673034207196795,-9.306354891450615,-2.5891116746351996,-0.0001462021850237181,0.0012610959329558697,-0.0018988763129704558,0.08324867797181797,0.08858246145790764,0.0021926710321690133,-0.002236115715868428,-0.0007168977847161499,-0.0018590884236523312,0.013033457346741622,0.00040729381144019084,-0.02755430688354436
0.0,0.0,-0.003490658476948738,-1.176554100721042,-9.306510925292969,-2.5889556407928467,-0.0001462021850237181,0.0012610959329558697,-0.0018988763129704558,0.08324867797181797,0.08858246145790764,0.0021926710321690133,-0.0026645148018723482,-0.0006931443706123807,-0.0004915459356100102,0.0015164031048771644,0.001647072680497548,-0.029326262090783043
0.001745329238474369,0.0,-0.001745329238474369,-1.18642793140309,-9.306510925292969,-2.5889556407928467,-0.0001462021850237181,0.0012610959329558697,-0.0018988763129704558,0.08324867797181797,0.08858246145790764,0.0021926710321690133,-0.0009191843225248112,-0.0006931358229834017,0.0012537820601612988,-0.008379679495900134,0.0016685846090141562,-0.029394212955976155
0.001745329238474369,0.0,-0.003490658476948738,-1.181757230321273,-9.296816147883145,-2.584108134238361,-0.0001462021850237181,0.0012610959329558697,-0.0018988763129704558,0.08324867797181797,0.08858246145790764,0.0021926710321690133,-0.0009191855634395643,-0.0006931419656053136,-0.0004915471770458653,-0.0037312220165935674,0.011384865217599934,-0.024614631515147877
0.001745329238474369,0.0,-0.003490658476948738,-1.1768196051774107,-9.286940897595422,-2.5791703890510984,-0.0001462021850237181,0.0012610959329558697,-0.0018988763129704558,0.08324867797181797,0.08858246145790764,0.0021926710321690133,0.0011168226116624732,-0.0005993343755782181,-0.0023030383700613573,-0.016971844610477637,0.0181684156123277,-0.031121659821506213
0.0,0.0,-0.001745329238474369,-1.1571357915832143,-9.29181319297531,-2.569317702031558,-0.0001462021850237181,0.0012610959329558697,-0.0018988763129704558,0.08324867797181797,0.08858246145790764,0.0021926710321690133,-8.556998917039976e-05,-0.0005743168528685465,-0.0010407724228117677,-0.0021086715147657616,0.012468667750677252,-0.024323073482505626
-0.001745329238474369,0.0,0.0,-1.1377442885391278,-9.296747530591027,-2.5596652193196516,-0.0001462021850237181,0.0012610959329558697,-0.0018988763129704558,0.08324867797181797,0.08858246145790764,0.0021926710321690133,-0.0018308977271768807,-0.0005743137356920339,0.0007045583170105744,0.017315297233268363,0.007532105519346135,-0.014678170323574274
-0.001745329238474369,0.0,0.0,-1.157494849136277,-9.30168515573489,-2.574478214794639,-0.0001462021850237181,0.0012610959329558697,-0.0018988763129704558,0.08324867797181797,0.08858246145790764,0.0021926710321690133,-0.0018308977272918062,-0.0005743137357512768,0.0007045583169923193,-0.002402782221243526,0.002592254599084161,-0.029498749015067917
0.0,0.0,0.0,-1.1771335045489006,-9.305951727762432,-2.5886201195554857,-0.0001462021850237181,0.0012610959329558697,-0.0018988763129704558,0.08324867797181797,0.08858246145790764,0.0021926710321690133,-0.0010559338454911502,-0.001024695611804868,-6.902516298991064e-06,0.006210573519773668,-0.02893143353915408,-0.04514674584112978
0.0,0.0,0.0,-1.1919442505719728,-9.281267151057312,-2.57380925350627,-0.0001462021850237181,0.0012610959329558697,-0.0018988763129704558,0.08324867797181797,0.08858246145790764,0.0021926710321690133,-0.0013034231280906088,-0.0011395632585580598,-0.00018835797101888035,-0.0013566787008668262,-0.011196556498439687,-0.03074700467888639
0.0,0.0,0.0,-1.2058588880069188,-9.257298261809705,-2.5598945003979274,-0.0001462021850237181,0.0012610959329558697,-0.0018988763129704558,0.08324867797181797,0.08858246145790764,0.0021926710321690133,-0.0013034231267045346,-0.0011395632600739837,-0.00018835797213538524,-0.015221608032479161,0.012774914928902481,-0.016866624370311827
0.0,0.0,0.0,-1.1959892895670672,-9.252363462589777,-2.569764098837779,-0.0001462021850237181,0.0012610959329558697,-0.0018988763129704558,0.08324867797181797,0.08858246145790764,0.0021926710321690133,-0.0013034231276853022,-0.0011395632588485057,-0.00018835797117128174,-0.0053023251410163515,0.01771229471531976,-0.026770579277325866
0.0,0.0,0.0,-1.186848974249612,-9.248159837766192,-2.579148769378662,-0.0001462021850237181,0.0012610959329558697,-0.0018988763129704558,0.08324867797181797,0.08858246145790764,0.0021926710321690133,-0.003663793962947097,-0.0013804127244087337,0.0021396262077445194,0.0024453917844152917,0.02060785259701035,-0.0333250221110767
0.001745329238474369,0.0,-0.001745329238474369,-1.1917858895906361,-9.258033668448238,-2.579148769378662,-0.0001462021850237181,0.0012610959329558697,-0.0018988763129704558,0.08324867797181797,0.08858246145790764,0.0021926710321690133,-0.002493122090466059,-0.0014390554072166082,0.0009610703611324645,-0.0028490717188851726,0.01044002059218272,-0.03271652260707438
0.003490658476948738,0.0,-0.003490658476948738,-1.1964112520217896,-9.267284393310547,-2.578836701693956,-0.0001462021850237181,0.0012610959329558697,-0.0018988763129704558,0.08324867797181797,0.08858246145790764,0.0021926710321690133,-0.0007477924639807443,-0.001439063224113693,-0.0007842584928351865,-0.007494498545923818,0.0012198623161543203,-0.032506664361148734
0.003490658476948738,0.0,-0.003490658476948738,-1.1964112520217896,-9.267284393310547,-2.5739014264573576,-0.0001462021850237181,0.0012610959329558697,-0.0018988763129704558,0.08324867797181797,0.08858246145790764,0.0021926710321690133,-0.0007477924631270183,-0.001439063226620743,-0.0007842584890700657,-0.007514551500326518,0.001250410285199004,-0.027673540541241375
0.003490658476948738,0.003490658476948738,-0.003490658476948738,-1.1964112520217898,-9.268797516040236,-2.5678290136533692,-0.0001462021850237181,0.0012610959329558697,-0.0018988763129704558,0.08324867797181797,0.08858246145790764,0.0021926710321690133,0.0013270338642617536,0.001397428907167731,-0.0020736117095595404,-0.009176767013387295,0.03365133362092353,-0.047017288880598924
0.001745329238474369,0.003490658476948738,-0.001745329238474369,-1.1964112520217896,-9.28854517740433,-2.5480813522892727,-0.0001462021850237181,0.0012610959329558697,-0.0018988763129704558,0.08324867797181797,0.08858246145790764,0.0021926710321690133,6.359866259591433e-05,0.001245498043900461,-0.0006277419125421839,-0.009552073872368375,0.021786413948490325,-0.033200726253899776
0.0,0.003490658476948738,0.0,-1.1955203379748482,-9.307401839339912,-2.531006518447576,-0.0001462021850237181,0.0012610959329558697,-0.0018988763129704558,0.08324867797181797,0.08858246145790764,0.0021926710321690133,-0.001681732727091927,0.0012455037479066797,0.0011175851747029163,-0.008648969416300046,0.0029387920042439294,-0.016165799930022026
0.0,0.0,0.0,-1.185646040621247,-9.317276136693511,-2.5408808158011773,-0.0001462021850237181,0.0012610959329558697,-0.0018988763129704558,0.08324867797181797,0.08858246145790764,0.0021926710321690133,-0.0016817361415318944,-0.0022451547309744325,0.001117593165154763,0.0012375184624984754,-0.006926465564620197,-0.026080004812789912
0.001745329238474369,-0.001745329238474369,0.0,-1.1767979860305786,-9.326124191284178,-2.550239764715652,-0.0001462021850237181,0.0012610959329558697,-0.0018988763129704558,0.08324867797181797,0.08858246145790764,0.0021926710321690133,-3.3167954813475425e-05,-0.0005758031519302818,0.0031242494201226857,-0.0020202631820191797,0.0008537792198955406,-0.03696267474950542
0.001745329238474369,-0.003490658476948738,-0.001745329238474369,-1.1767979860305786,-9.32612419128418,-2.5551776265058193,-0.0001462021850237181,0.0012610959329558697,-0.0018988763129704558,0.08324867797181797,0.08858246145790764,0.0021926710321690133,-5.454696600674233e-05,-0.0015667705331094432,0.0018222279521963054,-0.0047109512009174525,0.0045412535880660606,-0.042281395547986725
0.001745329238474369,-0.003490658476948738,-0.003490658476948738,-1.1762184988991886,-9.32612419128418,-2.5566380677305016,-0.0001462021850237181,0.0012610959329558697,-0.0018988763129704558,0.08324867797181797,0.08858246145790764,0.0021926710321690133,-5.4553928123827885e-05,-0.0015667747865248138,7.689871286106074e-05,-0.00415076761863247,0.004558758813501919,-0.04379776144660041
0.0,-0.001745329238474369,-0.005235987715423107,-1.171282753681138,-9.32612419128418,-2.5319593416402473,-0.0001462021850237181,0.0012610959329558697,-0.0018988763129704558,0.08324867797181797,0.08858246145790764,0.0021926710321690133,-0.0017998937756241937,0.00017854654973324162,-0.001668427815535738,0.0007656790439302772,0.004576258686711364,-0.01917494399077063
0.0,0.0,-0.005235987715423107,-1.1650515406319906,-9.322244582198373,-2.511795541438026,-0.0001462021850237181,0.0012610959329558697,-0.0018988763129704558,0.08324867797181797,0.08858246145790764,0.0021926710321690133,-0.0008946285339726819,-0.00023896036629965793,-0.002163967896462725,-0.007712671638203743,-0.02745755979275947,-0.006808594805395661
0.0,0.0,-0.005235987715423107,-1.1502407345958465,-9.292623090152228,-2.5216693721200745,-0.0001462021850237181,0.0012610959329558697,-0.0018988763129704558,0.08324867797181797,0.08858246145790764,0.0021926710321690133,-0.0007043140121980787,-0.0006936516155778813,-0.0022681436656484125,0.003988677092495254,-0.005379632304696875,-0.01833753040834701
0.0,0.0,-0.001745329238474369,-1.1397129463613613,-9.267998260925456,-2.531543339630454,-0.0001462021850237181,0.0012610959329558697,-0.0018988763129704558,0.08324867797181797,0.08858246145790764,0.0021926710321690133,-0.000704311532162205,-0.0006936478974675663,0.0012225148107823315,0.014494922072207053,0.019253848061981473,-0.02823323100549823
0.0,0.0,-0.001745329238474369,-1.1545195324108894,-9.272933769609974,-2.541414356999492,-0.0001462021850237181,0.0012610959329558697,-0.0018988763129704558,0.08324867797181797,0.08858246145790764,0.0021926710321690133,-0.0007043115316964889,-0.0006936478973664385,0.0012225148111233886,-0.00033319908385070704,0.014326987119655809,-0.038125973174580906
0.0,0.0,-0.001745329238474369,-1.1693319728441327,-9.27865143951226,-2.5481684571857395,-0.0001462021850237181,0.0012610959329558697,-0.0018988763129704558,0.08324867797181797,0.08858246145790764,0.0021926710321690133,0.0006131195370310531,-0.002045573047563964,-0.00024042359702584984,0.01530686840067738,0.018204729882038567,-0.04647664913080864
-0.001745329238474369,0.001745329238474369,-0.001745329238474369,-1.1841469682265666,-9.288528103100548,-2.53829179359745,-0.0001462021850237181,0.0012610959329558697,-0.0018988763129704558,0.08324867797181797,0.08858246145790764,0.0021926710321690133,-0.0008691429792043307,-0.0005701951269511119,-0.0005325442278552798,0.006581286227381528,0.010238168150186428,-0.03690096620456232
-0.001745329238474369,0.001745329238474369,-0.001745329238474369,-1.1955621583072202,-9.296704292297363,-2.5292665106860657,-0.0001462021850237181,0.0012610959329558697,-0.0018988763129704558,0.08324867797181797,0.08858246145790764,0.0021926710321690133,-0.0008691429789966278,-0.0005701951273325724,-0.0005325442272539244,-0.004824384676828874,0.0020552124387624177,-0.027855155860271028
-0.001745329238474369,0.001745329238474369,0.0,-1.1906273590872947,-9.296704292297363,-2.52433171146614,-0.0001462021850237181,0.0012610959329558697,-0.0018988763129704558,0.08324867797181797,0.08858246145790764,0.0021926710321690133,-0.000869145283964941,-0.000570196722449234,0.0012127850104781625,0.00011993093525709928,0.0020484478026507715,-0.022899835056863764
-0.001745329238474369,0.001745329238474369,0.0,-1.185690461289474,-9.297618450034074,-2.523051444615159,-0.0001462021850237181,0.0012610959329558697,-0.0018988763129704558,0.08324867797181797,0.08858246145790764,0.0021926710321690133,-0.0009386556710922451,-0.0004539631877724445,0.00036722136573703407,0.00986965464225994,0.010405582702995327,-0.013279577736096485
-0.001745329238474369,0.001745329238474369,0.0,-1.1807521294953296,-9.302556781828217,-2.5378664399975928,-0.0001462021850237181,0.0012610959329558697,-0.0018988763129704558,0.08324867797181797,0.08858246145790764,0.0021926710321690133,-0.0009518007395141783,-0.00043198179020485935,0.00020731452710390946,0.015746505700442837,0.007212781138156317,-0.026502699689131503
-0.001745329238474369,0.001745329238474369,0.0,-1.1807326707540144,-9.306510925292969,-2.548745199210987,-0.0001462021850237181,0.0012610959329558697,-0.0018988763129704558,0.08324867797181797,0.08858246145790764,0.0021926710321690133,-0.0009518007389381778,-0.00043198179118526255,0.0002073145279343243,0.01580002053708054,0.0032491387246991453,-0.037363281281014606
-0.001745329238474369,0.001745329238474369,0.0,-1.2004756516262176,-9.306510925292969,-2.543809453992936,-0.0001462021850237181,0.0012610959329558697,-0.0018988763129704558,0.08324867797181797,0.08858246145790764,0.0021926710321690133,-0.0009518007392497333,-0.0004319817904103621,0.00020731452734339497,-0.003908923769361491,0.003239645026708362,-0.03240936875903982
-0.001745329238474369,0.0,0.0,-1.2170747883267645,-9.304410410199273,-2.5399222373962402,-0.0001462021850237181,0.0012610959329558697,-0.0018988763129704558,0.08324867797181797,0.08858246145790764,0.0021926710321690133,-0.00040952570002466827,-0.001037575917578094,0.0007601738672781252,-0.005889766688899279,-0.011871031811917981,-0.03255167022621249
-0.001745329238474369,0.0,-0.001745329238474369,-1.2220112937612568,-9.294537519345006,-2.5399222373962402,-0.0001462021850237181,0.0012610959329558697,-0.0018988763129704558,0.08324867797181797,0.08858246145790764,0.0021926710321690133,-0.0003125952087422905,-0.000833848297398499,-0.0008863324759024741,-0.008191221285837963,-0.005084079280106632,-0.03324797105336898
-0.003490658476948738,0.0,-0.001745329238474369,-1.2213597215608853,-9.284661891767742,-2.5388043536292324,-0.0001462021850237181,0.0012610959329558697,-0.0018988763129704558,0.08324867797181797,0.08858246145790764,0.0021926710321690133,-0.002057924446477294,-0.0008338460260506606,-0.0008863315417938742,-0.00751253447355707,0.004780083702586691,-0.03210125155436112
-0.003490658476948738,0.0,0.0,-1.2016119486441816,-9.274788035316003,-2.533867425403364,-0.0001462021850237181,0.0012610959329558697,-0.0018988763129704558,0.08324867797181797,0.08858246145790764,0.0021926710321690133,-0.002057923513319841,-0.0008338488367606665,0.000858997696531814,0.01226234015293679,0.014642480851997005,-0.027135501384565754
-0.001745329238474369,0.0,0.0,-1.181858701716214,-9.272030296197736,-2.5324885558442287,-0.0001462021850237181,0.0012610959329558697,-0.0018988763129704558,0.08324867797181797,0.08858246145790764,0.0021926710321690133,-0.001445379889974688,-5.710690217478892e-05,0.003100769441357821,-0.015197550628573612,0.030624161113759953,-0.014869039542418985
-0.001745329238474369,0.0,0.0,-1.1621119265643158,-9.291777011339438,-2.54236191341508,-0.0001462021850237181,0.0012610959329558697,-0.0018988763129704558,0.08324867797181797,0.08858246145790764,0.0021926710321690133,-0.0016364032091689025,7.387652131411564e-05,0.003478803946078985,-0.0034376589960074737,0.013112124104712136,-0.02291139282639268
0.0,0.0,-0.003490658476948738,-1.1473779678344727,-9.306510925292969,-2.5509823710004857,-0.0001462021850237181,0.0012610959329558697,-0.0018988763129704558,0.08324867797181797,0.08858246145790764,0.0021926710321690133,0.00010892019303288454,7.387981194577543e-05,-1.185744891619602e-05,0.011267557723958004,-0.0016166395926368116,-0.03153688041075083
-0.001745329238474369,-0.001745329238474369,-0.005235987715423107,-1.1473779678344727,-9.306510925292969,-2.5559188227787195,-0.0001462021850237181,0.0012610959329558697,-0.0018988763129704558,0.08324867797181797,0.08858246145790764,0.0021926710321690133,-0.0016364085098926956,-0.0016714529627956888,-0.0017571836867597604,0.011238823884210419,-0.001611490921274321,-0.036478360656026686
-0.001745329238474369,-0.001745329238474369,-0.006981316953897476,-1.1487009817066465,-9.309156920872631,-2.559535503387451,-0.0001462021850237181,0.0012610959329558697,-0.0018988763129704558,0.08324867797181797,0.08858246145790764,0.0021926710321690133,0.000426165952748406,-0.0018220182570869285,-0.003937807687964071,0.009524111343635138,0.017436113620748834,-0.03480896625906837
-0.003490658476948738,-0.001745329238474369,-0.005235987715423107,-1.1536363169363792,-9.319027471345828,-2.559535503387451,-0.0001462021850237181,0.0012610959329558697,-0.0018988763129704558,0.08324867797181797,0.08858246145790764,0.0021926710321690133,-0.0009929519330935522,-0.001845837885460435,-0.0022613209161591514,0.0045118783083392,0.010986460485783086,-0.033928069429468785
-0.003490658476948738,0.0,-0.003490658476948738,-1.1557953713924627,-9.327513523042388,-2.558146171629243,-0.0001462021850237181,0.0012610959329558697,-0.0018988763129704558,0.08324867797181797,0.08858246145790764,0.0021926710321690133,-0.0009929517476289576,-0.00010051378708571929,-0.0005159865380554636,0.002334792317970511,0.002488864755015068,-0.032486869916900245
-0.003490658476948738,0.0,0.0,-1.1508593296164835,-9.332449504816644,-2.5532101898549873,-0.0001462021850237181,0.0012610959329558697,-0.0018988763129704558,0.08324867797181797,0.08858246145790764,0.0021926710321690133,-0.000992946673642574,-0.00010052406822296012,0.0029746719393361587,0.007252809606686183,-0.0024586570121278234,-0.027499040151710955
-0.001745329238474369,0.0,0.0,-1.156117965116076,-9.331560834492572,-2.5497288703918457,-0.0001462021850237181,0.0012610959329558697,-0.0018988763129704558,0.08324867797181797,0.08858246145790764,0.0021926710321690133,-0.00040746348842947633,-0.0004482700491365981,0.00033035260408913533,0.04747848029888782,-0.017478045005530237,-0.014643257311502083
-0.001745329238474369,0.0,0.0,-1.1857380978388254,-9.316750798136296,-2.5497288703918457,-0.0001462021850237181,0.0012610959329558697,-0.0018988763129704558,0.08324867797181797,0.08858246145790764,0.0021926710321690133,-0.0005800774930222291,-0.0005000225925073058,-6.318640765418469e-05,0.024672311493602876,-0.0050464593531939095,-0.013230402256110559
-0.001745329238474369,-0.001745329238474369,0.0,-1.2107891622276408,-9.304987172397126,-2.5573476719164945,-0.0001462021850237181,0.0012610959329558697,-0.0018988763129704558,0.08324867797181797,0.08858246145790764,0.0021926710321690133,-0.0005800817796563324,-0.0022453518315456267,-6.318863426641727e-05,-0.00032771438506305653,0.006704328261699687,-0.020827675363889433
-0.003490658476948738,0.0,0.0,-1.2255971675521316,-9.30005119062287,-2.5820277007912207,-0.0001462021850237181,0.0012610959329558697,-0.0018988763129704558,0.08324867797181797,0.08858246145790764,0.0021926710321690133,-0.0023254067315314564,-0.0005000183037034177,-6.318474405157726e-05,-0.01508470065358633,0.011627476493983829,-0.04548618414836617
-0.001745329238474369,0.0,0.0,-1.2292743350028261,-9.295113405079395,-2.5971713865704835,-0.0001462021850237181,0.0012610959329558697,-0.0018988763129704558,0.08324867797181797,0.08858246145790764,0.0021926710321690133,0.0006193151898080091,-0.002205944540759209,0.0007181457706425846,-0.01889308582783411,-0.0006920085916701738,-0.037477674146074245
-0.003490658476948738,0.001745329238474369,0.0,-1.2095237744056766,-9.290175779935533,-2.5922337614266215,-0.0001462021850237181,0.0012610959329558697,-0.0018988763129704558,0.08324867797181797,0.08858246145790764,0.0021926710321690133,-0.0009590180187637466,-0.0006981328948116127,0.0008269345914419019,0.0008537711952177525,0.0018265552684541863,-0.029264325778761206
-0.003490658476948738,0.001745329238474369,0.0,-1.1980708360671997,-9.286897659301758,-2.5906152248382566,-0.0001462021850237181,0.0012610959329558697,-0.0018988763129704558,0.08324867797181797,0.08858246145790764,0.0021926710321690133,-0.0009590180187865146,-0.0006981328947979818,0.0008269345914745747,0.012324299430733134,0.005085875158134884,-0.027585907946481452
-0.005235987715423107,0.001745329238474369,-0.001745329238474369,-1.2030086978573666,-9.286897659301758,-2.5955530866284238,-0.0001462021850237181,0.0012610959329558697,-0.0018988763129704558,0.08324867797181797,0.08858246145790764,0.0021926710321690133,-0.002704344672900109,-0.0006981253398024958,-0.0009183972292310898,0.007404027309778468,0.005067074009017802,-0.03246388855297486
-0.005235987715423107,0.001745329238474369,-0.001745329238474369,-1.207944596875243,-9.285170947443909,-2.5953088080929874,-0.0001462021850237181,0.0012610959329558697,-0.0018988763129704558,0.08324867797181797,0.08858246145790764,0.0021926710321690133,-0.003940519678285651,0.0006137620355919812,9.654650816283911e-05,-0.0030180592036946324,0.0065083987413031875,-0.0420214570356586
-0.005235987715423107,0.001745329238474369,-0.001745329238474369,-1.2128826920005582,-9.280232852318594,-2.5854324977875303,-0.0001462021850237181,0.0012610959329558697,-0.0018988763129704558,0.08324867797181797,0.08858246145790764,0.0021926710321690133,-0.004100956551250653,0.0007840250895199613,0.00022827119783944605,-0.008668292630665462,0.011404356761288256,-0.03339845986350819
-0.001745329238474369,0.0,-0.001745329238474369,-1.2088409772171782,-9.280682796704063,-2.579148769378662,-0.0001462021850237181,0.0012610959329558697,-0.0018988763129704558,0.08324867797181797,0.08858246145790764,0.0021926710321690133,-0.0006102979109438736,-0.0009613038222214972,0.00022826772573958563,-0.004626415443639138,0.010948326894423176,-0.02709246491228389
0.0,0.0,-0.001745329238474369,-1.1890895300565107,-9.290558520284396,-2.579148769378662,-0.0001462021850237181,0.0012610959329558697,-0.0018988763129704558,0.08324867797181797,0.08858246145790764,0.0021926710321690133,0.0011350313272686183,-0.000961303658785289,0.00022826707116792186,0.01512519413853324,0.0010665177775710385,-0.027070198385130282
0.0,0.0,-0.001745329238474369,-1.1767979860305786,-9.300429543824954,-2.577286143614867,-0.0001462021850237181,0.0012610959329558697,-0.0018988763129704558,0.08324867797181797,0.08858246145790764,0.0021926710321690133,-0.00027926418713717966,-0.0003635842387928831,0.0008192170917012995,0.014585671803311492,0.015429096593145486,-0.03418050535421127
0.0,0.0,-0.003490658476948738,-1.1767979860305786,-9.310305267405287,-2.5723482818247003,-0.0001462021850237181,0.0012610959329558697,-0.0018988763129704558,0.08324867797181797,0.08858246145790764,0.0021926710321690133,-0.0004497178576747472,-0.0002915482155830109,-0.0008548904145738319,0.01302927993615478,0.008479585573162184,-0.030339635660460065
0.0,0.0,-0.003490658476948738,-1.1806621735360836,-9.316317558288574,-2.5693421363830566,-0.0001462021850237181,0.0012610959329558697,-0.0018988763129704558,0.08324867797181797,0.08858246145790764,0.0021926710321690133,-0.00044971785752576543,-0.0002915482154296057,-0.0008548904145782564,0.009153906098659608,0.002473442737117339,-0.027350625701157504
-0.001745329238474369,0.0,-0.001745329238474369,-1.1905374238238082,-9.316317558288574,-2.5693421363830566,-0.0001462021850237181,0.0012610959329558697,-0.0018988763129704558,0.08324867797181797,0.08858246145790764,0.0021926710321690133,-0.002195044977319732,-0.00029154852307985854,0.0008904409420436804,-0.0007325295093612707,0.0024795901529880856,-0.027367759534654566
-0.001745329238474369,0.0,-0.001745329238474369,-1.1984101789391302,-9.312319704453893,-2.5693421363830566,-0.0001462021850237181,0.0012610959329558697,-0.0018988763129704558,0.08324867797181797,0.08858246145790764,0.0021926710321690133,-0.0024979674407320813,-0.00038134046773139705,-0.0004539806426387301,-0.002643912920861728,-0.008990045801388798,-0.02450904463303057
0.0,0.0,-0.001745329238474369,-1.203348040729297,-9.302443980873559,-2.5693421363830566,-0.0001462021850237181,0.0012610959329558697,-0.0018988763129704558,0.08324867797181797,0.08858246145790764,0.0021926710321690133,-0.0007863462688656922,-0.0003913339226055106,-0.0006035838817355197,-0.006897272019485301,-0.0008323732201783624,-0.024212994805678453
0.0,0.0,-0.001745329238474369,-1.1979443315210545,-9.294635903923279,-2.571410524757142,-0.0001462021850237181,0.0012610959329558697,-0.0018988763129704558,0.08324867797181797,0.08858246145790764,0.0021926710321690133,-0.0007863462688592191,-0.00039133392259947056,-0.0006035838819264444,-0.0014702026555430954,0.0069792272937167065,-0.026306107778311195
0.0,0.0,0.0,-1.1781938309456055,-9.289698278779415,-2.576348149901004,-0.0001462021850237181,0.0012610959329558697,-0.0018988763129704558,0.08324867797181797,0.08858246145790764,0.0021926710321690133,-0.0007863443677126338,-0.00039133188404837625,0.0011417453565633708,0.018303655805132636,0.011920375563792681,-0.03126845522668442
-0.001745329238474369,0.0,0.0,-1.1691283587011774,-9.276212630970736,-2.579148769378662,-0.0001462021850237181,0.0012610959329558697,-0.0018988763129704558,0.08324867797181797,0.08858246145790764,0.0021926710321690133,-0.0019176868847185745,-0.00038363276372736663,0.00029928619468097767,0.024561727011053813,-0.010149434441315299,-0.02451218159825207
-0.001745329238474369,0.0,0.0,-1.1740636339377755,-9.251536254787746,-2.579148769378662,-0.0001462021850237181,0.0012610959329558697,-0.0018988763129704558,0.08324867797181797,0.08858246145790764,0.0021926710321690133,-0.0018551930513003958,-0.0003828494426122246,0.00021353720494570922,0.019381390148799648,0.010904539580514926,-0.023547189605553524
0.0,0.0,0.0,-1.1834065383281442,-9.24227019585544,-2.581351673700162,-0.0001462021850237181,0.0012610959329558697,-0.0018988763129704558,0.08324867797181797,0.08858246145790764,0.0021926710321690133,-0.00010986381276019621,-0.0003828531268318735,0.0002135352850306648,0.010083591996191386,0.020166849080675987,-0.025758901080152444
0.0,0.0,0.0,-1.1982179843585459,-9.252144493209041,-2.5862889424087787,-0.0001462021850237181,0.0012610959329558697,-0.0018988763129704558,0.08324867797181797,0.08858246145790764,0.0021926710321690133,-0.0001098638126850188,-0.00038285312695728074,0.00021353528486639883,-0.00468274783165494,0.01028880209884187,-0.030704977038700558
0.0,0.0,0.0,-1.2016804666162653,-9.266552597117201,-2.586686876435489,-0.0001462021850237181,0.0012610959329558697,-0.0018988763129704558,0.08324867797181797,0.08858246145790764,0.0021926710321690133,-0.0008863523894068306,-0.0043200670609345624,0.001184609358983746,0.002192055074014585,0.0403265912270733,-0.04215897017341087
-0.001745329238474369,0.003490658476948738,0.0,-1.1918047430359313,-9.28630404427787,-2.5817488945961684,-0.0001462021850237181,0.0012610959329558697,-0.0018988763129704558,0.08324867797181797,0.08858246145790764,0.0021926710321690133,-0.00270425313673337,-0.0011973939363600155,0.0012753574882897417,0.013027038154366264,0.024733855033467457,-0.03826794778660795
0.0,0.005235987715423107,0.0,-1.1912790984243768,-9.303716011394652,-2.572137050281373,-0.0001462021850237181,0.0012610959329558697,-0.0018988763129704558,0.08324867797181797,0.08858246145790764,0.0021926710321690133,-0.0009589225352388712,0.0005479339391103443,0.0012753625635428725,0.013545511077926798,0.0073269229627185295,-0.028671066097064688
0.0,0.005235987715423107,-0.001745329238474369,-1.2011533957779779,-9.318527457425054,-2.5573256042509716,-0.0001462021850237181,0.0012610959329558697,-0.0018988763129704558,0.08324867797181797,0.08858246145790764,0.0021926710321690133,-0.0009589150453239373,0.0005479315234935365,-0.000469966673010668,0.0036640421726322234,-0.007479488051871532,-0.0138745827674122
0.0,0.005235987715423107,-0.005235987715423107,-1.206217885017395,-9.323721530949959,-2.5521315307260677,-0.0001462021850237181,0.0012610959329558697,-0.0018988763129704558,0.08324867797181797,0.08858246145790764,0.0021926710321690133,-0.001686562047745905,0.0031784644767916194,-0.0033531934308009864,-0.0027961743714282985,-0.0055563593936447525,-0.019264892526478495
0.0,0.001745329238474369,-0.003490658476948738,-1.206217885017395,-9.318783669159792,-2.557069392516234,-0.0001462021850237181,0.0012610959329558697,-0.0018988763129704558,0.08324867797181797,0.08858246145790764,0.0021926710321690133,-0.0017481657984202807,-8.949296298757956e-05,-0.0015564323646524614,-0.0029184039443782284,-4.81181320845884e-06,-0.025138164063256016
0.0,0.0,-0.001745329238474369,-1.2012755675354698,-9.31137524080665,-2.559535503387451,-0.0001462021850237181,0.0012610959329558697,-0.0018988763129704558,0.08324867797181797,0.08858246145790764,0.0021926710321690133,-0.001748166975508776,-0.0018348180605135917,0.0001889010144527923,0.002019438841991869,0.0074157549397269274,-0.02764706463412494
0.0,0.0,0.0,-1.1914022099646187,-9.301501883235797,-2.559535503387451,-0.0001462021850237181,0.0012610959329558697,-0.0018988763129704558,0.08324867797181797,0.08858246145790764,0.0021926710321690133,-0.0017481682290986366,-0.0018348139209772255,0.0019342302521900862,0.01188832177771127,0.017301250706937672,-0.027689854397806298
0.0,0.0,0.0,-1.1815304560824718,-9.296704292297363,-2.556998421915595,-0.0001462021850237181,0.0012610959329558697,-0.0018988763129704558,0.08324867797181797,0.08858246145790764,0.0021926710321690133,-0.0017110155124031169,-0.0006219440810786467,0.0026970510254881682,-0.0023261661110489666,0.01193271506379361,-0.034687740013814555
0.0,0.0,-0.001745329238474369,-1.1716547325021383,-9.296704292297363,-2.5520605601254283,-0.0001462021850237181,0.0012610959329558697,-0.0018988763129704558,0.08324867797181797,0.08858246145790764,0.0021926710321690133,-0.001708193793865181,-0.0005297778392082015,0.0010096909488657407,0.00570475517841349,0.011173494821405155,-0.030516953016916596
0.0,0.0,-0.003490658476948738,-1.1695969007091769,-9.299309839971567,-2.547123322717642,-0.0001462021850237181,0.0012610959329558697,-0.0018988763129704558,0.08324867797181797,0.08858246145790764,0.0021926710321690133,-0.001708195392391032,-0.0005297818927374709,-0.0007356382896507942,0.007747059392483075,0.008582372987225712,-0.02562567085459461
0.0,0.0,-0.003490658476948738,-1.1745335794946024,-9.304246518756992,-2.5421866439322165,-0.0001462021850237181,0.0012610959329558697,-0.0018988763129704558,0.08324867797181797,0.08858246145790764,0.0021926710321690133,-0.00170819539227591,-0.000529781890919717,-0.0007356382908978122,0.0027948529130508762,0.003660119795067075,-0.020734947353194335
0.0,0.0,-0.003490658476948738,-1.1714568608275084,-9.295828674886828,-2.5425927999977755,-0.0001462021850237181,0.0012610959329558697,-0.0018988763129704558,0.08324867797181797,0.08858246145790764,0.0021926710321690133,-0.001073999808229833,-0.0003681744024886036,-0.00237369966678812,-0.013866367600412153,-0.007229306235528771,-0.0244798731845836
0.0,0.0,-0.001745329238474369,-1.1615801972392192,-9.27607534771025,-2.54753113179192,-0.0001462021850237181,0.0012610959329558697,-0.0018988763129704558,0.08324867797181797,0.08858246145790764,0.0021926710321690133,-0.0010310780939019452,-0.0003572350837211222,-0.0007392280153413119,-0.005300437355463197,0.011221680525124185,-0.02967248274402748
0.0,0.0,0.0,-1.1517057533063098,-9.270023860026617,-2.546989403675776,-0.0001462021850237181,0.0012610959329558697,-0.0018988763129704558,0.08324867797181797,0.08858246145790764,0.0021926710321690133,-0.0010310761181941135,-0.0003572325105499159,0.0010061012227143957,0.004600681329260531,0.017277828007476303,-0.029161212204103167
0.0,0.0,0.0,-1.1418323357252624,-9.274960538812042,-2.5420527248903504,-0.0001462021850237181,0.0012610959329558697,-0.0018988763129704558,0.08324867797181797,0.08858246145790764,0.0021926710321690133,-0.0010310761181590593,-0.00035723251069489064,0.001006101222716893,0.014500768526079025,0.01234580798434543,-0.024254985271436852
0.0,-0.001745329238474369,0.0,-1.1431850964692236,-9.291125345081555,-2.53711537364116,-0.0001462021850237181,0.0012610959329558697,-0.0018988763129704558,0.08324867797181797,0.08858246145790764,0.0021926710321690133,-0.00025966440478960293,-0.002329719792480619,0.00233973762827878,0.02521393026487078,0.030160116344691,-0.023124492665415983
0.0,0.0,-0.001745329238474369,-1.1530571200194588,-9.315805253952835,-2.532179391866904,-0.0001462021850237181,0.0012610959329558697,-0.0018988763129704558,0.08324867797181797,0.08858246145790764,0.0021926710321690133,-0.00021416610914951328,-0.0005977898904963356,0.0006730701832508992,0.016045899031223457,0.007488085066615926,-0.0184229450631742
-0.001745329238474369,0.0,-0.003490658476948738,-1.165807939736644,-9.32324978471842,-2.5358644175321525,-0.0001462021850237181,0.0012610959329558697,-0.0018988763129704558,0.08324867797181797,0.08858246145790764,0.0021926710321690133,-0.0019594967977034712,-0.000597791813846096,-0.0010722576052251995,0.003287010895045147,4.745541657740676e-05,-0.022118548212958035
-0.001745329238474369,0.0,-0.003490658476948738,-1.1806208151682311,-9.318312159574559,-2.545739667819877,-0.0001462021850237181,0.0012610959329558697,-0.0018988763129704558,0.08324867797181797,0.08858246145790764,0.0021926710321690133,-0.001959496797595585,-0.0005977918138781886,-0.0010722576053140633,-0.011533932210281506,0.004988981284654385,-0.0320043749686296
-0.001745329238474369,0.0,-0.001745329238474369,-1.186604619026184,-9.310431228471323,-2.5556152002090977,-0.0001462021850237181,0.0012610959329558697,-0.0018988763129704558,0.08324867797181797,0.08858246145790764,0.0021926710321690133,-0.0021333068461766268,-0.0018620761341559672,-0.00127352003028094,0.000503788484761707,-0.01689292775132121,-0.02381866493521943
-0.001745329238474369,0.0,0.0,-1.186604619026184,-9.300560204930767,-2.565486223749654,-0.0001462021850237181,0.0012610959329558697,-0.0018988763129704558,0.08324867797181797,0.08858246145790764,0.0021926710321690133,-0.002142107603030384,-0.0019260798243413127,0.0003732624324631983,0.0014462436591395655,-0.008530006750580781,-0.0327854296535609
-0.001745329238474369,0.001745329238474369,0.0,-1.186604619026184,-9.284662790387591,-2.56332138542817,-0.0001462021850237181,0.0012610959329558697,-0.0018988763129704558,0.08324867797181797,0.08858246145790764,0.0021926710321690133,-0.0021421042677600456,-0.00018075058638651362,0.000373261245656228,0.0014778713862742391,0.00736599706352258,-0.030631232950794923
0.0,0.001745329238474369,0.0,-1.186604619026184,-9.264911343226924,-2.5534456618478365,-0.0001462021850237181,0.0012610959329558697,-0.0018988763129704558,0.08324867797181797,0.08858246145790764,0.0021926710321690133,-0.00039677502933186895,-0.00018075392108162427,0.0003732626992545047,0.0015094961155847108,0.027116033494050912,-0.020766149921768656
0.0,0.001745329238474369,-0.001745329238474369,-1.1927617805792678,-9.263634921868025,-2.5558860319449295,-0.0001462021850237181,0.0012610959329558697,-0.0018988763129704558,0.08324867797181797,0.08858246145790764,0.0021926710321690133,-0.00037970646838628917,0.00018398587324898875,9.213939727150136e-05,0.006571710110313733,0.028908774230094924,-0.011996204378045537
0.0,0.001745329238474369,-0.001745329238474369,-1.2026309061333715,-9.27350404742213,-2.565755157499033,-0.0001462021850237181,0.0012610959329558697,-0.0018988763129704558,0.08324867797181797,0.08858246145790764,0.0021926710321690133,-0.00037897969005395716,0.0001995183623145356,0.0001544924096273592,-0.00282145859467825,0.019064852497459518,-0.02139887662873201
-0.001745329238474369,0.001745329238474369,-0.001745329238474369,-1.2030740284102728,-9.283378739520396,-2.572485992990179,-0.0001462021850237181,0.0012610959329558697,-0.0018988763129704558,0.08324867797181797,0.08858246145790764,0.0021926710321690133,-0.002124308928537522,0.00019951836030208933,0.00015449178718501897,-0.0032664190131604853,0.009193513068317937,-0.028141136807632108
-0.001745329238474369,0.0,-0.001745329238474369,-1.1981356966161283,-9.293255403108686,-2.5774243247843236,-0.0001462021850237181,0.0012610959329558697,-0.0018988763129704558,0.08324867797181797,0.08858246145790764,0.0021926710321690133,-0.0021243089264010077,-0.00154581087822845,0.00015449293524462016,0.0016700742975887769,-0.0006797972275822897,-0.03309089547034758
0.0,0.0,-0.001745329238474369,-1.1931986046911258,-9.299916939628027,-2.579148769378662,-0.0001462021850237181,0.0012610959329558697,-0.0018988763129704558,0.08324867797181797,0.08858246145790764,0.0021926710321690133,-0.00127203805090467,-0.0006006384393681494,0.0005570205826836998,-0.00687013933080495,0.006603785292351098,-0.03590665456045344
0.0,0.0,0.0,-1.188264275362575,-9.304851268956579,-2.579148769378662,-0.0001462021850237181,0.0012610959329558697,-0.0018988763129704558,0.08324867797181797,0.08858246145790764,0.0021926710321690133,-0.0013029196424480377,-0.000567949989023326,0.002316269689733077,-0.0024070909291287754,0.002161900095752466,-0.035979458466346065
0.0,0.0,-0.001745329238474369,-1.1833268112854052,-9.299955309811411,-2.5725931538971043,-0.0001462021850237181,0.0012610959329558697,-0.0018988763129704558,0.08324867797181797,0.08858246145790764,0.0021926710321690133,-0.0013029211574940075,-0.000567953156558988,0.0005709404513589299,0.0025249693487824744,0.0070684251755946,-0.029460150585255255
0.0,0.0,-0.003490658476948738,-1.1783889494952382,-9.290079586231077,-2.5627174303167704,-0.0001462021850237181,0.0012610959329558697,-0.0018988763129704558,0.08324867797181797,0.08858246145790764,0.0021926710321690133,-0.001302922672706716,-0.000567956324514431,-0.0011743887870178918,0.0074574272656052765,0.016954714553160274,-0.01962073463435671
0.0,0.0,-0.005235987715423107,-1.1834911187756387,-9.29024422567429,-2.549495804269861,-0.0001462021850237181,0.0012610959329558697,-0.0018988763129704558,0.08324867797181797,0.08858246145790764,0.0021926710321690133,0.00028418677967550853,-0.0006114923014091979,-0.003485926471758158,-0.0076028095631160645,0.024345233005719134,-0.02873248588885851
-0.001745329238474369,0.0,-0.003490658476948738,-1.19336071721549,-9.295179024894214,-2.534691406610084,-0.0001462021850237181,0.0012610959329558697,-0.0018988763129704558,0.08324867797181797,0.08858246145790764,0.0021926710321690133,-0.00141862361234424,-0.0006126585519560712,-0.001755764125539653,-0.017731425451054758,0.019611206839253412,-0.01452420762331856
-0.001745329238474369,0.0,-0.001745329238474369,-1.1793500661507172,-9.30352875005419,-2.540352291035875,-0.0001462021850237181,0.0012610959329558697,-0.0018988763129704558,0.08324867797181797,0.08858246145790764,0.0021926710321690133,-0.001418622194902431,-0.0006126589465274396,-1.0434887059477622e-05,-0.0037128150918008117,0.011259824151130506,-0.02018288517170851
-0.001745329238474369,0.0,0.0,-1.1546606971753064,-9.313404473634524,-2.5551658764063756,-0.0001462021850237181,0.0012610959329558697,-0.0018988763129704558,0.08324867797181797,0.08858246145790764,0.0021926710321690133,-0.0014186207773536808,-0.0006126593410875841,0.0017348943514649397,0.020984513180994063,0.001382443038378755,-0.0349942636784912
-0.001745329238474369,0.0,0.0,-1.150859632759895,-9.32328080349431,-2.559535503387451,-0.0001462021850237181,0.0012610959329558697,-0.0018988763129704558,0.08324867797181797,0.08858246145790764,0.0021926710321690133,-0.00012173434013594251,-0.0017706804329252334,0.0002593237174561583,0.026892864979130644,0.0021712235502390773,-0.029268917367079404
-0.001745329238474369,0.001745329238474369,0.0,-1.1557949679896278,-9.333151353967507,-2.559535503387451,-0.0001462021850237181,0.0012610959329558697,-0.0018988763129704558,0.08324867797181797,0.08858246145790764,0.0021926710321690133,-9.706408236477412e-05,-4.7376630735054275e-05,0.0002312617783232866,0.02203287133831097,-0.007510990553666209,-0.029040523242907196
-0.001745329238474369,0.001745329238474369,0.0,-1.1713742398982638,-9.32174130442089,-2.5559881234227273,-0.0001462021850237181,0.0012610959329558697,-0.0018988763129704558,0.08324867797181797,0.08858246145790764,0.0021926710321690133,-9.70640824543672e-05,-4.737663081462912e-05,0.0002312617783136444,0.006489550865360533,0.0038842622263290626,-0.025456043913467407
-0.003490658476948738,0.001745329238474369,0.0,-1.19112190126236,-9.301993643056793,-2.551051208081703,-0.0001462021850237181,0.0012610959329558697,-0.0018988763129704558,0.08324867797181797,0.08858246145790764,0.0021926710321690133,-0.0018423933208109062,-4.737298687357977e-05,0.00023126061682661271,-0.013222159174257345,0.023617126534047315,-0.020482029215532674
-0.003490658476948738,0.001745329238474369,-0.001745329238474369,-1.2072509481730243,-9.285864640068347,-2.5569553052111895,-0.0001462021850237181,0.0012610959329558697,-0.0018988763129704558,0.08324867797181797,0.08858246145790764,0.0021926710321690133,-0.0014829581467529173,0.0002932351347292376,-0.0014664081662545023,0.008978710891564247,0.004871841693957207,-0.004962428912471303
-0.005235987715423107,0.001745329238474369,0.0,-1.2220652935763832,-9.271050354692402,-2.56683149546182,-0.0001462021850237181,0.0012610959329558697,-0.0018988763129704558,0.08324867797181797,0.08858246145790764,0.0021926710321690133,-0.0032239952098549996,0.000297302292221957,0.00027948986378151366,-0.005341466728819943,0.019252626875889106,-0.0145388500663568
-0.003490658476948738,0.001745329238474369,0.0,-1.2184676747870689,-9.274647943985766,-2.5803875519071005,-0.0001462021850237181,0.0012610959329558697,-0.0018988763129704558,0.08324867797181797,0.08858246145790764,0.0021926710321690133,-0.0014786659712589627,0.0002972987525300588,0.0002794902724309782,-0.0017070007182176628,0.015637826019943412,-0.028050465823713306
-0.001745329238474369,0.0,0.0,-1.208593784091949,-9.284521774667814,-2.5951984179563166,-0.0001462021850237181,0.0012610959329558697,-0.0018988763129704558,0.08324867797181797,0.08858246145790764,0.0021926710321690133,0.00026665972774523054,-0.0014480340257181665,0.00027948660298227296,0.008203737107565244,0.005746783418151189,-0.04281689124819145
0.0,0.0,0.0,-1.198718860955386,-9.290647171332763,-2.5800146224754013,-0.0001462021850237181,0.0012610959329558697,-0.0018988763129704558,0.08324867797181797,0.08858246145790764,0.0021926710321690133,-0.0014347483731285268,-0.0015985271521995654,0.0005231562408330135,0.00414960493572765,0.012488417582663674,-0.04638660491570225
0.0,0.001745329238474369,0.0,-1.1888445506305672,-9.29558432649517,-2.5553287266313798,-0.0001462021850237181,0.0012610959329558697,-0.0018988763129704558,0.08324867797181797,0.08858246145790764,0.0021926710321690133,-0.0014489104948669218,0.00014618364147960607,0.0005241541620127432,0.013996739632124755,0.007609822768457309,-0.02181406775875374
0.0,0.001745329238474369,-0.001745329238474369,-1.198053915924001,-9.29288785999809,-2.553545302691118,-0.0001462021850237181,0.0012610959329558697,-0.0018988763129704558,0.08324867797181797,0.08858246145790764,0.0021926710321690133,-0.0014489097559598602,0.00014618015583562288,-0.0012211750768955346,0.004817558586516177,0.010311990308404033,-0.020067069045280123
0.0,0.0,0.0,-1.2128675012945016,-9.287949998207925,-2.558483164481285,-0.0001462021850237181,0.0012610959329558697,-0.0018988763129704558,0.08324867797181797,0.08858246145790764,0.0021926710321690133,-0.0014484771165849076,-0.001594165624866504,0.0005296677765686963,-0.009964250832060224,0.015317595278193936,-0.025043411956761023
0.0,0.0,-0.001745329238474369,-1.2082557062670687,-9.298550876920656,-2.559535503387451,-0.0001462021850237181,0.0012610959329558697,-0.0018988763129704558,0.08324867797181797,0.08858246145790764,0.0021926710321690133,-0.001317924352582651,-0.00010430069484374411,0.0004328085369962725,-0.0048486985015955405,0.023283251795724793,-0.02674421934033853
0.0,-0.001745329238474369,-0.001745329238474369,-1.1983865807129652,-9.31335456525181,-2.559535503387451,-0.0001462021850237181,0.0012610959329558697,-0.0018988763129704558,0.08324867797181797,0.08858246145790764,0.0021926710321690133,-0.0013179237418993151,-0.00184962993316855,0.00043281173851317424,0.005021189446582824,0.008489756280788288,-0.02678244457964899
0.0,0.0,-0.001745329238474369,-1.2003616354547186,-9.316317558288574,-2.559535503387451,-0.0001462021850237181,0.0012610959329558697,-0.0018988763129704558,0.08324867797181797,0.08858246145790764,0.0021926710321690133,-0.0013179243521995866,-0.00010430069477792546,0.000432808537703929,0.003046897343957562,0.005536960773335874,-0.026820688057596125
0.0,0.0,-0.003490658476948738,-1.2052994972448856,-9.316317558288574,-2.559535503387451,-0.0001462021850237181,0.0012610959329558697,-0.0018988763129704558,0.08324867797181797,0.08858246145790764,0.0021926710321690133,-0.0013056358232711848,-0.00011189808488888228,-0.001308238011333007,-0.002172906360406721,0.005216552099382342,-0.026888775014345417
0.0,0.0,-0.003490658476948738,-1.1981808629399233,-9.304262025172367,-2.555516992348715,-0.0001462021850237181,0.0012610959329558697,-0.0018988763129704558,0.08324867797181797,0.08858246145790764,0.0021926710321690133,-0.00016498093955694097,-0.0008166648968492948,-0.0009107895098572648,-0.021289619452320233,-0.013399145121292255,-0.025677916114791397
0.0,0.0,-0.005235987715423107,-1.1883084451518222,-9.289453398490215,-2.5505807834546648,-0.0001462021850237181,0.0012610959329558697,-0.0018988763129704558,0.08324867797181797,0.08858246145790764,0.0021926710321690133,-0.00016498191076837052,-0.0008166655766308232,-0.0026561187485827824,-0.011430380847316747,0.0014136042758995633,-0.020750420104748212
0.0,0.001745329238474369,-0.003490658476948738,-1.17435302533836,-9.278729930176542,-2.5538127349544535,-0.0001462021850237181,0.0012610959329558697,-0.0018988763129704558,0.08324867797181797,0.08858246145790764,0.0021926710321690133,-0.0001649824281307365,0.000928664341653299,-0.0009107901899962537,0.002511863530016694,0.012141194097998215,-0.023991081988887105
-0.001745329238474369,0.0,0.0,-1.1595380299559264,-9.268853266588252,-2.558751066748598,-0.0001462021850237181,0.0012610959329558697,-0.0018988763129704558,0.08324867797181797,0.08858246145790764,0.0021926710321690133,-0.0019166678645926615,-0.0008100864513622489,0.0025503552341952355,0.017460829017057262,0.022217794523518714,-0.02867067205919594
-0.003490658476948738,0.0,0.001745329238474369,-1.1613379461383884,-9.271437619409568,-2.5719952826576264,-0.0001462021850237181,0.0012610959329558697,-0.0018988763129704558,0.08324867797181797,0.08858246145790764,0.0021926710321690133,-0.004007324424290393,-0.0004528672908449604,0.002693037839259409,0.023638741600886318,0.03027022603477825,-0.02740096147789716
-0.001745329238474369,0.0,0.0,-1.1662755712822506,-9.27637524455343,-2.586808278132614,-0.0001462021850237181,0.0012610959329558697,-0.0018988763129704558,0.08324867797181797,0.08858246145790764,0.0021926710321690133,-0.0022619969525231047,-0.0004528708203430213,0.0009477068331186757,0.01872864485134093,0.025333807890608406,-0.04223211584489157
0.0,0.0,0.0,-1.1838720158995868,-9.293971689170766,-2.5762950410438386,-0.0001462021850237181,0.0012610959329558697,-0.0018988763129704558,0.08324867797181797,0.08858246145790764,0.0021926710321690133,-0.000516667714064836,-0.0004528728981593179,0.0009477050674048154,0.0011597181134328889,0.007738569717733513,-0.0317370307921074
0.0,0.0,-0.003490658476948738,-1.2036234630602543,-9.313723136331433,-2.5614813356241846,-0.0001462021850237181,0.0012610959329558697,-0.0018988763129704558,0.08324867797181797,0.08858246145790764,0.0021926710321690133,-0.0005221713017085181,-0.00046383530008956323,-0.0024679440207886283,-0.01803738265403814,-0.012284523012171386,-0.017394734875351814
0.0,0.0,-0.005235987715423107,-1.2105065835967381,-9.303451462550544,-2.5552468048081085,-0.0001462021850237181,0.0012610959329558697,-0.0018988763129704558,0.08324867797181797,0.08858246145790764,0.0021926710321690133,-0.0007323005220567752,-0.0008825448944623032,-0.0013475222134125952,-0.004767663451210519,-0.01243583024323584,-0.0284950194048543
0.0,0.0,-0.005235987715423107,-1.2154432623821636,-9.288641426194268,-2.550310126022682,-0.0001462021850237181,0.0012610959329558697,-0.0018988763129704558,0.08324867797181797,0.08858246145790764,0.0021926710321690133,-0.0007323005231896367,-0.0008825448922214225,-0.0013475222143722386,-0.009748692410306485,0.0023861958225121875,-0.0235802047321444
-0.001745329238474369,0.0,-0.003490658476948738,-1.2073179534367113,-9.278191094725468,-2.55408215267999,-0.0001462021850237181,0.0012610959329558697,-0.0018988763129704558,0.08324867797181797,0.08858246145790764,0.0021926710321690133,-0.002477628933240526,-0.0008825473228015589,0.000397807852372867,-0.0016677041718491479,0.012848508744080115,-0.027374080920149823
0.0,0.0,-0.003490658476948738,-1.197444122754663,-9.26831726404342,-2.5590190680210148,-0.0001462021850237181,0.0012610959329558697,-0.0018988763129704558,0.08324867797181797,0.08858246145790764,0.0021926710321690133,-0.0007307926103803728,-0.0008772372800728567,0.0003085169618880621,0.008229336062130917,0.023479026884848687,-0.03246455031281946
0.0,0.001745329238474369,-0.001745329238474369,-1.1964112520217896,-9.289392320853597,-2.559535503387451,-0.0001462021850237181,0.0012610959329558697,-0.0018988763129704558,0.08324867797181797,0.08858246145790764,0.0021926710321690133,-0.000686400196967346,0.0010243705938179572,-0.0005762010935868762,0.011209733206170467,0.024350837762033027,-0.036881882175384594
0.0,0.0,0.0,-1.1964112520217896,-9.314080446572907,-2.559535503387451,-0.0001462021850237181,0.0012610959329558697,-0.0018988763129704558,0.08324867797181797,0.08858246145790764,0.0021926710321690133,-0.0006864006113189576,-0.0007209568254263017,0.001169129964325432,0.011230335604754707,-0.00033438193623112975,-0.03690323746028988
0.0,0.0,0.0,-1.2098769205467268,-9.31182902030113,-2.550558427412562,-0.0001462021850237181,0.0012610959329558697,-0.0018988763129704558,0.08324867797181797,0.08858246145790764,0.0021926710321690133,-0.0006864006114973829,-0.0007209568247099633,0.0011691299648470736,-0.002214738389216191,0.001919949168019069,-0.027947508673513862
0.0,0.0,-0.001745329238474369,-1.224690565941804,-9.306891158510963,-2.5406827038322284,-0.0001462021850237181,0.0012610959329558697,-0.0018988763129704558,0.08324867797181797,0.08858246145790764,0.0021926710321690133,-0.0006749423616135692,-0.0007190895529974987,-0.00047783978467496577,-0.018358439241045865,0.005541132865187964,-0.01794593339175159
-0.001745329238474369,0.0,-0.003490658476948738,-1.1984919948502482,-9.288284778640666,-2.544478774059316,-0.0001462021850237181,0.0012610959329558697,-0.0018988763129704558,0.08324867797181797,0.08858246145790764,0.0021926710321690133,-0.0021464397433414092,-0.0006744289860691567,0.00012720427123491561,-0.024416577982921978,-0.00738170302663448,-0.01824536124849866
-0.001745329238474369,0.0,-0.003490658476948738,-1.168869042773537,-9.268536183933465,-2.549415922736116,-0.0001462021850237181,0.0012610959329558697,-0.0018988763129704558,0.08324867797181797,0.08858246145790764,0.0021926710321690133,-0.002146439744159633,-0.0006744289834964118,0.00012720427016604425,0.005169743404751756,0.012375772454593925,-0.023197203830887924
0.0,0.0,-0.003490658476948738,-1.1669913530349731,-9.267284393310547,-2.554351359512947,-0.0001462021850237181,0.0012610959329558697,-0.0018988763129704558,0.08324867797181797,0.08858246145790764,0.0021926710321690133,-0.00040111050491444564,-0.0006744252282162268,0.00012720298877257614,0.007010823312368182,0.013636438602462678,-0.0281473260807564
0.0,0.0,-0.003490658476948738,-1.1669913530349731,-9.267284393310547,-2.5592892213031138,-0.0001462021850237181,0.0012610959329558697,-0.0018988763129704558,0.08324867797181797,0.08858246145790764,0.0021926710321690133,-0.0004297790161912359,-0.0007214719038562783,8.33255109513167e-05,0.006913145911472985,0.014989163630469622,-0.032870041619032654
0.0,0.001745329238474369,-0.003490658476948738,-1.171682707897531,-9.286049812760778,-2.564226858250009,-0.0001462021850237181,0.0012610959329558697,-0.0018988763129704558,0.08324867797181797,0.08858246145790764,0.0021926710321690133,-0.0010047007969725109,8.037636907947836e-05,-0.000796599624696217,0.0009614784194695317,0.023182290731070698,-0.03321372502576131
0.0,0.001745329238474369,-0.001745329238474369,-1.1766203330413934,-9.30580031333623,-2.5691644833938714,-0.0001462021850237181,0.0012610959329558697,-0.0018988763129704558,0.08324867797181797,0.08858246145790764,0.0021926710321690133,-0.001004701679593953,8.037888461636872e-05,0.0009487296140109595,-0.003997427797491746,0.0034415943347315923,-0.03817717188420761
0.0,0.001745329238474369,-0.003490658476948738,-1.172039195755932,-9.301752135018322,-2.5598245558337633,-0.0001462021850237181,0.0012610959329558697,-0.0018988763129704558,0.08324867797181797,0.08858246145790764,0.0021926710321690133,-0.00100470079689098,8.03763690502679e-05,-0.0007965996245742298,0.0005624344982935788,0.007499573915374647,-0.02886305871504233
0.0,0.0,-0.003490658476948738,-1.167101333965765,-9.296814273228154,-2.5499488322534294,-0.0001462021850237181,0.0012610959329558697,-0.0018988763129704558,0.08324867797181797,0.08858246145790764,0.0021926710321690133,-0.0008299684734172254,-0.0016009739180209552,-0.0009007301863722293,0.00487394642542153,0.013823682320456998,-0.019926847438005223
0.0,0.0,-0.001745329238474369,-1.152511121750335,-9.316011189112096,-2.544902146188163,-0.0001462021850237181,0.0012610959329558697,-0.0018988763129704558,0.08324867797181797,0.08858246145790764,0.0021926710321690133,0.0021767920676585674,-0.000500029922362048,-0.0009473201223160376,0.009033698410928227,0.01832086158058758,-0.03062490258594053
-0.001745329238474369,0.0,-0.001745329238474369,-1.137701025383862,-9.335757904253798,-2.5399654674027374,-0.0001462021850237181,0.0012610959329558697,-0.0018988763129704558,0.08324867797181797,0.08858246145790764,0.0021926710321690133,0.000431462829215743,-0.000500027515865122,-0.0009473184588032793,0.023874575465855873,-0.0014420856668438701,-0.025642669311649453
-0.003490658476948738,0.0,0.0,-1.1522559648356294,-9.331035967448134,-2.5399222373962402,-0.0001462021850237181,0.0012610959329558697,-0.0018988763129704558,0.08324867797181797,0.08858246145790764,0.0021926710321690133,-0.001313864745699471,-0.0005000295481949554,0.0007980124433421712,0.009350419674452872,0.00326361717143156,-0.025553880621496005
-0.003490658476948738,0.0,0.0,-1.1671323207330635,-9.326030213009187,-2.5399692265337372,-0.0001462021850237181,0.0012610959329558697,-0.0018988763129704558,0.08324867797181797,0.08858246145790764,0.0021926710321690133,-0.0014228870206645825,-0.0005733607347722875,0.0007532161279487199,-0.0023650109173902105,0.004663104528595851,-0.024019523795439767
-0.003490658476948738,0.0,0.0,-1.196752453455813,-9.306283497867483,-2.5498425841045886,-0.0001462021850237181,0.0012610959329558697,-0.0018988763129704558,0.08324867797181797,0.08858246145790764,0.0021926710321690133,-0.0030652247441025817,-0.0016780338921986771,7.839332635530692e-05,0.015199516349381824,-0.029687313054858788,-0.01071420426361655
-0.001745329238474369,0.0,0.0,-1.2255605468297501,-9.286446455483125,-2.559715984914904,-0.0001462021850237181,0.0012610959329558697,-0.0018988763129704558,0.08324867797181797,0.08858246145790764,0.0021926710321690133,-0.0013198955056509037,-0.0016780378714742734,7.839423750990685e-05,-0.013568526044710073,-0.009857954354023517,-0.020579702038211287
-0.001745329238474369,0.001745329238474369,0.0,-1.2107469014346728,-9.26175714653229,-2.5695917084952384,-0.0001462021850237181,0.0012610959329558697,-0.0018988763129704558,0.08324867797181797,0.08858246145790764,0.0021926710321690133,-0.0013198915264348002,6.729136585572215e-05,7.839484819476109e-05,0.0012851702869232698,0.01482367072512463,-0.030447522546376612
0.0,0.001745329238474369,0.0,-1.1964112520217896,-9.238654063164553,-2.578832941842333,-0.0001462021850237181,0.0012610959329558697,-0.0018988763129704558,0.08324867797181797,0.08858246145790764,0.0021926710321690133,0.00037088855436115566,-0.00012076849456568884,7.225663303954261e-05,0.01448938273766392,0.03981952266874929,-0.03946734618223631
0.0,0.001745329238474369,0.0,-1.1964112520217896,-9.263342188883865,-2.5689576915546084,-0.0001462021850237181,0.0012610959329558697,-0.0018988763129704558,0.08324867797181797,0.08858246145790764,0.0021926710321690133,-0.0003575570442734251,-0.002632032170365708,-9.72544556168141e-06,-0.0011151359470630718,0.04050238764907641,-0.02673370161418957
-0.001745329238474369,0.001745329238474369,0.0,-1.1961847101045175,-9.287577285053574,-2.5599885872219956,-0.0001462021850237181,0.0012610959329558697,-0.0018988763129704558,0.08324867797181797,0.08858246145790764,0.0021926710321690133,-0.00210288627979527,-0.0026320280007606704,-9.732254264026135e-06,-0.0008635524731740372,0.01626438963870806,-0.017766468730040272
-0.001745329238474369,0.003490658476948738,0.0,-1.1912491983342393,-9.302383820364408,-2.5698596107625518,-0.0001462021850237181,0.0012610959329558697,-0.0018988763129704558,0.08324867797181797,0.08858246145790764,0.0021926710321690133,-0.0021028821108500023,-0.0008866987598975921,-9.733358486853305e-06,0.004096988936719472,0.001454953746256614,-0.027639362629426074
0.0,0.005235987715423107,0.0,-1.1868978312441647,-9.315731133852612,-2.578855557160681,-0.0001462021850237181,0.0012610959329558697,-0.0018988763129704558,0.08324867797181797,0.08858246145790764,0.0021926710321690133,-0.00041808079382729213,0.0009880657969200946,0.00017358407671229554,0.006687759132978601,-0.01079448977214714,-0.03740932064053047
0.0,0.005235987715423107,-0.001745329238474369,-1.1918349799209653,-9.30585683649901,-2.573918408483881,-0.0001462021850237181,0.0012610959329558697,-0.0018988763129704558,0.08324867797181797,0.08858246145790764,0.0021926710321690133,-0.001143719414941166,0.002539739988970028,0.0006257258185001401,-0.019633286065793874,0.012273622219168964,-0.041732217928720616
0.0,0.003490658476948738,-0.003490658476948738,-1.1942482893340685,-9.29778577145015,-2.568621150281199,-0.0001462021850237181,0.0012610959329558697,-0.0018988763129704558,0.08324867797181797,0.08858246145790764,0.0021926710321690133,-0.0011437152457623345,0.0007944079309378763,-0.001119600600307164,-0.022066831741310126,0.02035436072066504,-0.03646083997471127
0.0,0.001745329238474369,-0.003490658476948738,-1.1646210585684906,-9.31259935682065,-2.5587454267008654,-0.0001462021850237181,0.0012610959329558697,-0.0018988763129704558,0.08324867797181797,0.08858246145790764,0.0021926710321690133,-0.001143714214662737,-0.0009509213066632787,-0.0011195977806049387,0.007540162843445971,0.005550448695246243,-0.02661099674704745
0.0,0.0,-0.001745329238474369,-1.13970934579289,-9.325696590132956,-2.5497288703918457,-0.0001462021850237181,0.0012610959329558697,-0.0018988763129704558,0.08324867797181797,0.08858246145790764,0.0021926710321690133,-0.0011176542291958006,-0.0025865535214343958,0.0006343067940758657,0.03364646863983167,-0.008516382067672704,-0.018467357085083166
0.0,0.0,0.0,-1.164395149192801,-9.320759441456158,-2.5497288703918457,-0.0001462021850237181,0.0012610959329558697,-0.0018988763129704558,0.08324867797181797,0.08858246145790764,0.0021926710321690133,-0.0008349977882975702,-0.0013968574267660856,0.002472608246847784,0.022116371471327112,-0.014190398395225899,-0.02767956392987634
0.0,0.0,-0.001745329238474369,-1.1870995332147471,-9.314832815722884,-2.5497288703918453,-0.0001462021850237181,0.0012610959329558697,-0.0018988763129704558,0.08324867797181797,0.08858246145790764,0.0021926710321690133,-0.0008349974919555544,-0.001396859571711827,0.0007272790077764575,-0.0006023726792445668,-0.008255744013682577,-0.0277022229457867
0.0,0.0,-0.003490658476948738,-1.1920355149890032,-9.300024870400117,-2.5497288703918457,-0.0001462021850237181,0.0012610959329558697,-0.0018988763129704558,0.08324867797181797,0.08858246145790764,0.0021926710321690133,-0.000834997194889045,-0.001396861716060146,-0.0010180502301052046,-0.005552709118555993,0.0065602268242812576,-0.0277248733592287
0.0,0.001745329238474369,-0.003490658476948738,-1.1936031060137458,-9.286336031465577,-2.5502904982280263,-0.0001462021850237181,0.0012610959329558697,-0.0018988763129704558,0.08324867797181797,0.08858246145790764,0.0021926710321690133,-0.0006995813993973711,0.00031219770402311,-0.0011676383977365322,-0.009223269731794225,0.018241212559445972,-0.02705962341891378
0.0,0.001745329238474369,-0.003490658476948738,-1.168914920272734,-9.281398406321715,-2.5552281233718888,-0.0001462021850237181,0.0012610959329558697,-0.0018988763129704558,0.08324867797181797,0.08858246145790764,0.0021926710321690133,0.0006437506125067259,-4.759824296690158e-05,-0.0026515248550959113,-0.005265067119978604,0.003188083223788671,-0.019621234727695697
-0.001745329238474369,0.0,-0.001745329238474369,-1.1486392243843349,-9.277721650748154,-2.5601661278294516,-0.0001462021850237181,0.0012610959329558697,-0.0018988763129704558,0.08324867797181797,0.08858246145790764,0.0021926710321690133,-0.001101582104809354,-0.0017929262533969775,-0.0009061978661866934,0.01503213293200107,0.006858364893758903,-0.024545894104158673
-0.001745329238474369,0.0,0.0,-1.158509355745476,-9.282656686433612,-2.5651011635149104,-0.0001462021850237181,0.0012610959329558697,-0.0018988763129704558,0.08324867797181797,0.08858246145790764,0.0021926710321690133,-0.0011015832677480199,-0.0017929273402693398,0.0008391313716701396,0.005183493420766328,0.0019168589276046947,-0.02946759230790982
-0.001745329238474369,0.001745329238474369,0.0,-1.1690794806300788,-9.284809531706653,-2.5700381789147584,-0.0001462021850237181,0.0012610959329558697,-0.0018988763129704558,0.08324867797181797,0.08858246145790764,0.0021926710321690133,-0.0010108316907716133,-9.855762959918328e-05,0.0009297520857446148,-0.0019492098741954774,-0.0007701538926311341,-0.0331714677449127
-0.001745329238474369,0.001745329238474369,0.0,-1.1838923560616659,-9.269996656275065,-2.574975804058621,-0.0001462021850237181,0.0012610959329558697,-0.0018988763129704558,0.08324867797181797,0.08858246145790764,0.0021926710321690133,-0.00018572070031285768,-0.0005618944263304213,0.0017536858387135225,0.014315239483437695,0.009237936939682874,-0.027002753073590544
-0.001745329238474369,0.001745329238474369,0.0,-1.1971758019227838,-9.259771410017924,-2.579148769378662,-0.0001462021850237181,0.0012610959329558697,-0.0018988763129704558,0.08324867797181797,0.08858246145790764,0.0021926710321690133,-0.00018572070024114995,-0.0005618944262923586,0.0017536858388161576,0.0010285180497649358,0.019453688640930562,-0.031139195258127732
-0.003490658476948738,0.001745329238474369,-0.003490658476948738,-1.202113187177699,-9.27458356578267,-2.579148769378662,-0.0001462021850237181,0.0012610959329558697,-0.0018988763129704558,0.08324867797181797,0.08858246145790764,0.0021926710321690133,-0.0019310453660394298,-0.0005618879308327443,-0.0017369749239494155,-0.003912142876863774,0.004632038192177198,-0.0311026721648162
-0.003490658476948738,0.001745329238474369,-0.003490658476948738,-1.2053874277901722,-9.288558573756204,-2.5783183121514393,-0.0001462021850237181,0.0012610959329558697,-0.0018988763129704558,0.08324867797181797,0.08858246145790764,0.0021926710321690133,-0.0021015872285003946,-0.0003399155166121372,-0.0017212478330782583,-0.007204987622839545,-0.0053723808103607286,-0.031191161789849684
-0.001745329238474369,0.0,-0.001745329238474369,-1.2004502726277626,-9.298432884081024,-2.5733811569890293,-0.0001462021850237181,0.0012610959329558697,-0.0018988763129704558,0.08324867797181797,0.08858246145790764,0.0021926710321690133,-0.0017881665185324567,-0.00022150992117005017,0.00015612945608047365,-0.002398737011877943,0.018162711623117733,-0.03424435491089205
-0.001745329238474369,0.0,0.0,-1.1964112520217896,-9.308308134368747,-2.569342136383056,-0.0001462021850237181,0.0012610959329558697,-0.0018988763129704558,0.08324867797181797,0.08858246145790764,0.0021926710321690133,-0.0017881642460160702,-0.00022150950794732864,0.0019014586947701253,0.0016468403785423766,0.008288672962389955,-0.03021312425492318
0.0,0.0,-0.001745329238474369,-1.1964112520217896,-9.318184324619377,-2.5693421363830566,-0.0001462021850237181,0.0012610959329558697,-0.0018988763129704558,0.08324867797181797,0.08858246145790764,0.0021926710321690133,-4.283728026003229e-05,-0.00022150991545677681,0.000156127183721687,0.0016533977667939103,-0.001586305549560045,-0.030220914964052922
0.0,0.0,-0.003490658476948738,-1.197376878797351,-9.323227310957494,-2.5674108828319335,-0.0001462021850237181,0.0012610959329558697,-0.0018988763129704558,0.08324867797181797,0.08858246145790764,0.0021926710321690133,-4.943361668043878e-05,-0.0003669637425477857,-0.0014778654545747195,0.0013604223708653758,-0.008748810098547798,-0.029173643115674244
0.0,0.0,-0.003490658476948738,-1.2023135575827766,-9.308417274601219,-2.5575375252610826,-0.0001462021850237181,0.0012610959329558697,-0.0018988763129704558,0.08324867797181797,0.08858246145790764,0.0021926710321690133,-0.00010076253174234029,-0.0014992137731674401,-0.0006111897444487916,0.0016118268033597746,-0.010445518117962337,-0.02612831361466626
0.0,0.0,-0.003490658476948738,-1.206217885017395,-9.295671891478381,-2.551793672029811,-0.0001462021850237181,0.0012610959329558697,-0.0018988763129704558,0.08324867797181797,0.08858246145790764,0.0021926710321690133,-0.00010076253171256518,-0.001499213773128191,-0.0006111897443950632,-0.002317067150543312,0.0023045938533390667,-0.02038949926965237
0.0,0.001745329238474369,-0.003490658476948738,-1.206217885017395,-9.290734976137356,-2.5616675027118587,-0.0001462021850237181,0.0012610959329558697,-0.0018988763129704558,0.08324867797181797,0.08858246145790764,0.0021926710321690133,-0.00010076467517472245,0.00024611546559792446,-0.0006111902841971635,-0.0023416336784379322,0.007246237979369618,-0.03026836885553617
-0.001745329238474369,0.001745329238474369,-0.001745329238474369,-1.2018253404441837,-9.287995795445061,-2.568244000239754,-0.0001462021850237181,0.0012610959329558697,-0.0018988763129704558,0.08324867797181797,0.08858246145790764,0.0021926710321690133,-0.0017309513321275341,0.00034207841304868336,0.0011664319366570465,-0.0011444511413321974,0.009913850904658227,-0.03612286358620594
-0.001745329238474369,0.001745329238474369,-0.001745329238474369,-1.1820786253024815,-9.292932474230486,-2.563307321454328,-0.0001462021850237181,0.0012610959329558697,-0.0018988763129704558,0.08324867797181797,0.08858246145790764,0.0021926710321690133,-0.0008972258878218935,0.0010369381292629194,0.0014002622600782534,-0.0043815697364323475,0.004428776856125442,-0.025924496878694324
-0.001745329238474369,0.0,-0.003490658476948738,-1.1681557996573848,-9.295539845674952,-2.560699950009863,-0.0001462021850237181,0.0012610959329558697,-0.0018988763129704558,0.08324867797181797,0.08858246145790764,0.0021926710321690133,-0.0008972243709653332,-0.0007083895749678095,-0.0003450685126171887,0.00951546137138078,0.0018208781066773967,-0.023302369296848105
-0.001745329238474369,0.0,-0.003490658476948738,-1.173092714998409,-9.290602930333929,-2.565636865350887,-0.0001462021850237181,0.0012610959329558697,-0.0018988763129704558,0.08324867797181797,0.08858246145790764,0.0021926710321690133,-0.0008972243709302537,-0.0007083895748277575,-0.00034506851261414907,0.004552753970364601,0.006757266086431797,-0.028224529870254603
-0.001745329238474369,0.0,-0.003490658476948738,-1.1767979860305786,-9.290593123465682,-2.570573957771032,-0.0001462021850237181,0.0012610959329558697,-0.0018988763129704558,0.08324867797181797,0.08858246145790764,0.0021926710321690133,-0.0009742165982356911,-0.0006922251105891622,-0.00042887025892532463,0.001699112363397354,0.009205406360344967,-0.03245521032335699
0.0,0.0,-0.003490658476948738,-1.1767979860305786,-9.305401769064193,-2.575510172970535,-0.0001462021850237181,0.0012610959329558697,-0.0018988763129704558,0.08324867797181797,0.08858246145790764,0.0021926710321690133,0.00024949116124364903,-0.000582710179523204,-0.0009966265647442566,0.0076198620421640394,0.01091970704417449,-0.032692548434740856
0.0,0.0,-0.001745329238474369,-1.1767979860305786,-9.316317558288574,-2.577849927383365,-0.0001462021850237181,0.0012610959329558697,-0.0018988763129704558,0.08324867797181797,0.08858246145790764,0.0021926710321690133,0.00024949264398114703,-0.0005827104053023791,0.0007487026737065509,0.007610166147126366,5.149151320654673e-06,-0.03503202365064928
0.0,0.0,-0.001745329238474369,-1.1767979860305786,-9.316317558288574,-2.572913012042341,-0.0001462021850237181,0.0012610959329558697,-0.0018988763129704558,0.08324867797181797,0.08858246145790764,0.0021926710321690133,0.0002494926442056792,-0.0005827104053828204,0.0007487026737918547,0.0076004702507292115,6.380468320531259e-06,-0.03009482909591131
-0.001745329238474369,0.0,-0.001745329238474369,-1.1808951234433733,-9.31358613334671,-2.5666107114411933,-0.0001462021850237181,0.0012610959329558697,-0.0018988763129704558,0.08324867797181797,0.08858246145790764,0.0021926710321690133,-0.0014082762656471009,-0.0006001342555316044,0.0005791356338090885,0.00770762957911924,0.0009685448184342817,-0.02633558878467685
0.0,0.0,-0.001745329238474369,-1.1956966841964416,-9.303718426178,-2.5567430042724815,-0.0001462021850237181,0.0012610959329558697,-0.0018988763129704558,0.08324867797181797,0.08858246145790764,0.0021926710321690133,0.0008934403941476116,-0.0007108439617132895,-0.0004983623948116327,0.019677390930815008,-0.0004138819449524029,-0.03262679121804142
-0.001745329238474369,0.0,-0.001745329238474369,-1.207646756223357,-9.296704292297363,-2.5497288703918453,-0.0001462021850237181,0.0012610959329558697,-0.0018988763129704558,0.08324867797181797,0.08858246145790764,0.0021926710321690133,-0.0008518888443873632,-0.0007108425368031048,-0.0004983611921208759,0.007746137050557462,0.0065934028615699134,-0.025596868400493678
-0.001745329238474369,0.0,-0.001745329238474369,-1.2125831984758526,-9.296704292297363,-2.5497288703918457,-0.0001462021850237181,0.0012610959329558697,-0.0018988763129704558,0.08324867797181797,0.08858246145790764,0.0021926710321690133,-0.0008518888442787424,-0.0007108425367509393,-0.0004983611919886685,0.0028285129552996727,0.006586553727174414,-0.02558107950233956
-0.001745329238474369,0.0,0.0,-1.2160245180130007,-9.299694824301007,-2.552719402395489,-0.0001462021850237181,0.0012610959329558697,-0.0018988763129704558,0.08324867797181797,0.08858246145790764,0.0021926710321690133,-0.001148265779521359,-0.000702519533557462,0.0011969725031801882,-0.0005842777384094758,0.0044072193398898485,-0.027490247443804912
0.0,0.001745329238474369,0.0,-1.2160245180130005,-9.309564895671926,-2.5625894737664074,-0.0001462021850237181,0.0012610959329558697,-0.0018988763129704558,0.08324867797181797,0.08858246145790764,0.0021926710321690133,-0.0011758827265509737,0.0010926076193494146,0.0008978938197198065,-0.0005061301065316095,-0.0005743992963707771,-0.030977205315414383
0.0,0.0,0.0,-1.214463538865353,-9.314756579140926,-2.566220178087762,-0.0001462021850237181,0.0012610959329558697,-0.0018988763129704558,0.08324867797181797,0.08858246145790764,0.0021926710321690133,-0.0011758849150517647,-0.0006527216197119736,0.0008978967098242726,0.0010822778042787892,-0.005760947313872778,-0.03464101608883029
0.0,0.0,0.0,-1.2095268600799276,-9.309819900355501,-2.556346820516911,-0.0001462021850237181,0.0012610959329558697,-0.0018988763129704558,0.08324867797181797,0.08858246145790764,0.0021926710321690133,-0.0011758849149297254,-0.000652721619606801,0.0008978967098025371,0.0060463800947456675,-0.000819134232772276,-0.024800758727652913
0.0,0.0,-0.001745329238474369,-1.206217885017395,-9.298372406678505,-2.5529842778376315,-0.0001462021850237181,0.0012610959329558697,-0.0018988763129704558,0.08324867797181797,0.08858246145790764,0.0021926710321690133,-0.001116986347835496,-0.0005024206412188313,-0.0005568633765011368,0.0054666895456846115,0.004627268324377536,-0.021115978707328554
0.0,0.0,-0.003490658476948738,-1.206217885017395,-9.273698410578875,-2.562853876277483,-0.0001462021850237181,0.0012610959329558697,-0.0018988763129704558,0.08324867797181797,0.08858246145790764,0.0021926710321690133,-0.0007851314670678924,0.00034442750222228884,-0.000665058277519272,-0.016576028515778735,-0.004533485784913845,-0.02901553543446806
0.0,0.0,-0.003490658476948738,-1.19944769008684,-9.257477760314941,-2.5676495876504175,-0.0001462021850237181,0.0012610959329558697,-0.0018988763129704558,0.08324867797181797,0.08858246145790764,0.0021926710321690133,-0.0007851314670440002,0.00034442750224951846,-0.0006650582774602357,-0.009817356788022955,0.011696035282020017,-0.03383819577859953
0.0,0.0,-0.001745329238474369,-1.179699095379638,-9.257477760314941,-2.5627124389736173,-0.0001462021850237181,0.0012610959329558697,-0.0018988763129704558,0.08324867797181797,0.08858246145790764,0.0021926710321690133,-0.0007851279575102448,0.0003444295380652063,0.0010802709610560823,0.009919714587410105,0.011704905995406528,-0.0289279960473449
0.0,-0.001745329238474369,-0.001745329238474369,-1.1669913530349731,-9.264517070405226,-2.55777567586488,-0.0001462021850237181,0.0012610959329558697,-0.0018988763129704558,0.08324867797181797,0.08858246145790764,0.0021926710321690133,-0.0006356821852528445,-0.001461191252237751,0.0011623765544895865,0.02224827842978724,0.012334663505710787,-0.025318076506966925
0.0,-0.001745329238474369,-0.003490658476948738,-1.1669913530349731,-9.284257213147065,-2.5528406401794204,-0.0001462021850237181,0.0012610959329558697,-0.0018988763129704558,0.08324867797181797,0.08858246145790764,0.0021926710321690133,0.00015976020611900097,-0.0017821034614840083,-0.000145941528235776,0.02027738789855112,0.03337558299290001,-0.0273253034759177
0.0,0.0,-0.003490658476948738,-1.1724665273361132,-9.304004524698883,-2.5515539284922255,-0.0001462021850237181,0.0012610959329558697,-0.0018988763129704558,0.08324867797181797,0.08858246145790764,0.0021926710321690133,0.00015975704583736264,-3.6774223025343714e-05,-0.00014594149858247418,0.014775899980654374,0.013632786849942626,-0.02604216869002281
0.0,0.0,-0.003490658476948738,-1.1872779733665149,-9.323753119406085,-2.556491077169026,-0.0001462021850237181,0.0012610959329558697,-0.0018988763129704558,0.08324867797181797,0.08858246145790764,0.0021926710321690133,0.0001597570458243693,-3.677422297919081e-05,-0.00014594149853158037,-6.186219845653696e-05,-0.006111292113794694,-0.03098289452771788
-0.001745329238474369,0.0,-0.001745329238474369,-1.194519090118991,-9.328362176668591,-2.5557511795818546,-0.0001462021850237181,0.0012610959329558697,-0.0018988763129704558,0.08324867797181797,0.08858246145790764,0.0021926710321690133,-0.0014326768925709088,-0.0002933734808885014,0.0011157032831026028,-0.009291602640657518,-0.01336764141286483,-0.03239015304605405
-0.003490658476948738,0.0,-0.001745329238474369,-1.1895845273419394,-9.308623925560385,-2.545882054027751,-0.0001462021850237181,0.0012610959329558697,-0.0018988763129704558,0.08324867797181797,0.08858246145790764,0.0021926710321690133,-0.002407565852953862,-0.0015863828227234361,-0.001321647877154943,-0.014261850718563177,-0.0069901360240774224,-0.03332188065382854
-0.001745329238474369,0.0,0.0,-1.178776584157868,-9.294747289527608,-2.5399222373962407,-0.0001462021850237181,0.0012610959329558697,-0.0018988763129704558,0.08324867797181797,0.08858246145790764,0.0021926710321690133,-0.0006622373253360327,-0.0015863880953396704,0.000423682072469559,-0.003421258810714437,0.006875947871491084,-0.027339002015521002
-0.001745329238474369,0.001745329238474369,0.0,-1.1590260235607184,-9.289809664383746,-2.5399222373962402,-0.0001462021850237181,0.0012610959329558697,-0.0018988763129704558,0.08324867797181797,0.08858246145790764,0.0021926710321690133,-0.000662234100890607,0.00015894114323199206,0.0004236841203290639,0.01636195045242885,0.011803020703382508,-0.027315940006877197
-0.001745329238474369,0.001745329238474369,0.0,-1.1575069863850274,-9.290949256871748,-2.5399222373962402,-0.0001462021850237181,0.0012610959329558697,-0.0018988763129704558,0.08324867797181797,0.08858246145790764,0.0021926710321690133,-0.0007337138602044103,-7.508722040312318e-05,0.0006460152625555524,0.021525468908833487,0.00994834826549444,-0.025461067669917178
-0.001745329238474369,0.005235987715423107,0.0,-1.1821916231032192,-9.300823087553795,-2.5399222373962402,-0.0001462021850237181,0.0012610959329558697,-0.0018988763129704558,0.08324867797181797,0.08858246145790764,0.0021926710321690133,-0.0010746280376364124,0.0022994057123585034,0.001706392806901369,0.014092855986420866,-0.0032951106892450976,-0.016702380837084065
-0.001745329238474369,0.003490658476948738,-0.001745329238474369,-1.1964112520217896,-9.302328090362417,-2.5441050723267917,-0.0001462021850237181,0.0012610959329558697,-0.0018988763129704558,0.08324867797181797,0.08858246145790764,0.0021926710321690133,-0.001074624797170499,0.0005540776201006671,-3.8937578258251636e-05,-0.000132843925359194,-0.004804046770562293,-0.020867521238200286
-0.001745329238474369,0.001745329238474369,-0.003490658476948738,-1.1964112520217896,-9.292452840074692,-2.5539803226145166,-0.0001462021850237181,0.0012610959329558697,-0.0018988763129704558,0.08324867797181797,0.08858246145790764,0.0021926710321690133,-0.0010746215556013616,-0.001191250471949364,-0.0017842679633631447,-0.00013891730706083448,0.005067268726040347,-0.03072507028765046
-0.001745329238474369,0.0,-0.001745329238474369,-1.1942516312624316,-9.280418797023684,-2.5616951241468096,-0.0001462021850237181,0.0012610959329558697,-0.0018988763129704558,0.08324867797181797,0.08858246145790764,0.0021926710321690133,-0.0012446983195313478,-0.0024946156920420334,-0.0001513591517689507,0.0013006836719853389,0.014647801201215921,-0.03629910163387096
-0.001745329238474369,0.0,0.0,-1.189316362151131,-9.265612989689782,-2.56663039325811,-0.0001462021850237181,0.0012610959329558697,-0.0018988763129704558,0.08324867797181797,0.08858246145790764,0.0021926710321690133,-0.0020172468596651966,-0.00048699624007664195,0.0010833074234290866,0.0029921845632734493,0.018323233320607372,-0.03157811349383944
-0.001745329238474369,0.0,0.0,-1.186604619026184,-9.264154166818779,-2.5671166675484436,-0.0001462021850237181,0.0012610959329558697,-0.0018988763129704558,0.08324867797181797,0.08858246145790764,0.0021926710321690133,-0.0020172468599361816,-0.00048699624054715035,0.0010833074229752116,0.0057279964046377295,0.01978210768013853,-0.03207667826777199
0.0,0.0,0.0,-1.186604619026184,-9.27896775218928,-2.5621788057582773,-0.0001462021850237181,0.0012610959329558697,-0.0018988763129704558,0.08324867797181797,0.08858246145790764,0.0021926710321690133,-0.0002719176212174347,-0.0004869980230308341,0.0010833057311379754,0.005752060515868339,0.004968573726333108,-0.027151104668437735
0.0,0.0,-0.001745329238474369,-1.1888986287187833,-9.289191668994357,-2.559535503387451,-0.0001462021850237181,0.0012610959329558697,-0.0018988763129704558,0.08324867797181797,0.08858246145790764,0.0021926710321690133,-0.00036898244575773504,-0.0007809928663688885,-6.8651576131787166e-06,-0.0003930185923802247,0.0012816152232303396,-0.028245402935202217
0.0,0.001745329238474369,-0.003490658476948738,-1.193833897830084,-9.294126938105657,-2.559535503387451,-0.0001462021850237181,0.0012610959329558697,-0.0018988763129704558,0.08324867797181797,0.08858246145790764,0.0021926710321690133,-0.000788624502308614,-0.00030670695177518364,0.0010802935968832806,-0.022075110542278877,0.024610527108678924,-0.04436492972320924
0.0,0.001745329238474369,-0.003490658476948738,-1.184614600373274,-9.301422941484804,-2.5524575296062912,-0.0001462021850237181,0.0012610959329558697,-0.0018988763129704558,0.08324867797181797,0.08858246145790764,0.0021926710321690133,-0.000788624502287431,-0.00030670695186121774,0.0010802935968557813,-0.012923764413347343,0.01732881795228735,-0.037306497621111954
0.0,0.001745329238474369,-0.005235987715423107,-1.15993114643595,-9.311296299055654,-2.537647493250015,-0.0001462021850237181,0.0012610959329558697,-0.0018988763129704558,0.08324867797181797,0.08858246145790764,0.0021926710321690133,-0.0007886227732619838,-0.0003067089952050924,-0.0006650356416020559,0.011691738139142833,0.007469754103632032,-0.022516003111986458
0.0,0.001745329238474369,-0.005235987715423107,-1.1449514535932999,-9.323597101012092,-2.5301156044006348,-0.0001462021850237181,0.0012610959329558697,-0.0018988763129704558,0.08324867797181797,0.08858246145790764,0.0021926710321690133,-0.0007047559286196399,-8.051609746411416e-05,-0.0011063366770303633,0.024152533782642028,-0.0029781580153920477,-0.01484718912506914
0.0,0.001745329238474369,-0.003490658476948738,-1.1400157083752491,-9.338404336666244,-2.5301156044006348,-0.0001462021850237181,0.0012610959329558697,-0.0018988763129704558,0.08324867797181797,0.08858246145790764,0.0021926710321690133,-0.000358979576105683,0.0008520607947365,-0.0011804600668348572,0.018927050082205982,-0.010192690552734487,-0.014220394220465206
0.0,0.0,-0.003490658476948738,-1.142558091361645,-9.338257367955151,-2.535102330614127,-0.0001462021850237181,0.0012610959329558697,-0.0018988763129704558,0.08324867797181797,0.08858246145790764,0.0021926710321690133,-0.0003589786769821264,-0.0008932684436856695,-0.001180458962610858,0.016377284376444787,-0.010041255247306315,-0.019220182079352586
0.0,0.0,-0.001745329238474369,-1.1524319820567652,-9.32344662193208,-2.5449761612961748,-0.0001462021850237181,0.0012610959329558697,-0.0018988763129704558,0.08324867797181797,0.08858246145790764,0.0021926710321690133,-0.0003589778727848921,-0.0008932673394158726,0.0005648702757878166,0.006496011647971225,0.004773956920863778,-0.029107073162504597
-0.001745329238474369,0.0,0.0,-1.1648675068494494,-9.300951984668412,-2.55228979932854,-0.0001462021850237181,0.0012610959329558697,-0.0018988763129704558,0.08324867797181797,0.08858246145790764,0.0021926710321690133,-0.0016297956272337672,-0.0008291105312476253,0.0019491538414339803,-0.0019450879415233947,0.017118414539496758,-0.03567746682506588
-0.001745329238474369,0.0,0.0,-1.1796747425036018,-9.271337513360105,-2.5572255445465903,-0.0001462021850237181,0.0012610959329558697,-0.0018988763129704558,0.08324867797181797,0.08858246145790764,0.0021926710321690133,0.00023747447190106938,-0.0005766445874431436,0.0005283806442242632,-0.001003061767695964,0.0067731802574226225,-0.03763912327794585
-0.001745329238474369,0.0,0.0,-1.1787235086224999,-9.260104797116169,-2.551654392983767,-0.0001462021850237181,0.0012610959329558697,-0.0018988763129704558,0.08324867797181797,0.08858246145790764,0.0021926710321690133,0.00023747447176215614,-0.0005766445875998549,0.0005283806440477368,-1.535001044449958e-05,0.017989963251369857,-0.032027045029834035
-0.001745329238474369,0.0,0.0,-1.1639127722584313,-9.265041709237526,-2.5368436566196984,-0.0001462021850237181,0.0012610959329558697,-0.0018988763129704558,0.08324867797181797,0.08858246145790764,0.0021926710321690133,0.00023747447202983706,-0.0005766445874606199,0.000528380644187957,0.014831867717342545,0.013037116049900354,-0.017175378220781638
-0.003490658476948738,0.0,0.0,-1.1652663817974616,-9.275366055068641,-2.5381972661587286,-0.0001462021850237181,0.0012610959329558697,-0.0018988763129704558,0.08324867797181797,0.08858246145790764,0.0021926710321690133,-0.0015585083450656825,-0.0007812979403178337,0.0006892921550683286,0.016431359555757013,0.006877988969588466,-0.016065862621868727
-0.003490658476948738,0.0,0.0,-1.1800707794572385,-9.290170452728418,-2.5530016638185056,-0.0001462021850237181,0.0012610959329558697,-0.0018988763129704558,0.08324867797181797,0.08858246145790764,0.0021926710321690133,-0.0017489133549827964,-0.001550591739455768,0.0012941430550935551,0.01262187519948541,0.007775135146610397,-0.021724893691810288
-0.003490658476948738,0.0,0.0,-1.186604619026184,-9.293944898944034,-2.559535503387451,-0.0001462021850237181,0.0012610959329558697,-0.0018988763129704558,0.08324867797181797,0.08858246145790764,0.0021926710321690133,-0.001748913355353427,-0.0015505917397571245,0.001294143054422192,0.006100415494023105,0.003988632105717218,-0.028220297880548296
