angular_velocity_x,angular_velocity_y,angular_velocity_z,linear_acceleration_x,linear_acceleration_y,linear_acceleration_z,fake_gyro_bias_x,fake_gyro_bias_y,fake_gyro_bias_z,fake_acc_bias_x,fake_acc_bias_y,fake_acc_bias_z,fake_gyro_noise_x,gyro_noise_y,gyro_noise_z,fake_acc_noise_x,fake_acc_noise_y,fake_acc_noise_z
0.0,0.0,0.0,-1.6448426355015147,-8.62628529288552,-4.187439441680908,-0.0012276383937892359,0.0009231538729513529,-0.002731246535655604,0.08971900292153903,0.06535136084205022,0.029937731727542265,0.0,0.0,0.0,0.0,0.0,0.0
0.0,0.001745329238474369,0.0,-1.6497804534748233,-8.637394725053008,-4.189702690871063,-0.0012276383937892359,0.0009231538729513529,-0.002731246535655604,0.08971900292153903,0.06535136084205022,0.029937731727542265,0.0,0.0,0.0,0.0,0.0,0.0
0.0,0.001745329238474369,-0.001745329238474369,-1.654718409153613,-8.632456769374219,-4.194640646549853,-0.0012276383937892359,0.0009231538729513529,-0.002731246535655604,0.08971900292153903,0.06535136084205022,0.029937731727542265,0.0,0.0,0.0,0.0,0.0,0.0
0.0,0.0,-0.001745329238474369,-1.6526599126433161,-8.61585965237807,-4.192582178386685,-0.0012276383937892359,0.0009231538729513529,-0.002731246535655604,0.08971900292153903,0.06535136084205022,0.029937731727542265,0.0,0.0,0.0,0.0,0.0,0.0
0.0,0.0,-0.001745329238474369,-1.6427881572646097,-8.586244566242232,-4.182710483008071,-0.0012276383937892359,0.0009231538729513529,-0.002731246535655604,0.08971900292153903,0.06535136084205022,0.029937731727542265,0.0,0.0,0.0,0.0,0.0,0.0
0.0,0.0,-0.001745329238474369,-1.6353116736518536,-8.590202003973406,-4.172835251829465,-0.0012276383937892359,0.0009231538729513529,-0.002731246535655604,0.08971900292153903,0.06535136084205022,0.029937731727542265,0.0,0.0,0.0,0.0,0.0,0.0
0.0,0.0,-0.001745329238474369,-1.6303751317798056,-8.629694819018049,-4.162962168085368,-0.0012276383937892359,0.0009231538729513529,-0.002731246535655604,0.08971900292153903,0.06535136084205022,0.029937731727542265,0.0,0.0,0.0,0.0,0.0,0.0
0.0,0.0,-0.003490658476948738,-1.6279038190841675,-8.649465560913086,-4.16541699521963,-0.0012276383937892359,0.0009231538729513529,-0.002731246535655604,0.08971900292153903,0.06535136084205022,0.029937731727542265,0.0,0.0,0.0,0.0,0.0,0.0
0.0,0.0,-0.003490658476948738,-1.6279038190841675,-8.649465560913086,-4.180224538287549,-0.0012276383937892359,0.0009231538729513529,-0.002731246535655604,0.08971900292153903,0.06535136084205022,0.029937731727542265,0.0,0.0,0.0,0.0,0.0,0.0
0.0,0.0,-0.001745329238474369,-1.622838314703544,-8.639334305847047,-4.18997219387122,-0.0012276383937892359,0.0009231538729513529,-0.002731246535655604,0.08971900292153903,0.06535136084205022,0.029937731727542265,0.0,0.0,0.0,0.0,0.0,0.0
0.0,0.0,-0.001745329238474369,-1.6129619385779521,-8.619581073367517,-4.194910381934016,-0.0012276383937892359,0.0009231538729513529,-0.002731246535655604,0.08971900292153903,0.06535136084205022,0.029937731727542265,0.0,0.0,0.0,0.0,0.0,0.0
0.0,0.001745329238474369,-0.001745329238474369,-1.6082905530929565,-8.615440888085377,-4.1868404490184545,-0.0012276383937892359,0.0009231538729513529,-0.002731246535655604,0.08971900292153903,0.06535136084205022,0.029937731727542265,0.0,0.0,0.0,0.0,0.0,0.0
0.0,0.001745329238474369,-0.001745329238474369,-1.6082905530929565,-8.625310228125333,-4.167101768938543,-0.0012276383937892359,0.0009231538729513529,-0.002731246535655604,0.08971900292153903,0.06535136084205022,0.029937731727542265,0.0,0.0,0.0,0.0,0.0,0.0
0.0,0.0,-0.001745329238474369,-1.6162900359360213,-8.629851341247559,-4.166019025537157,-0.0012276383937892359,0.0009231538729513529,-0.002731246535655604,0.08971900292153903,0.06535136084205022,0.029937731727542265,0.0,0.0,0.0,0.0,0.0,0.0
0.0,0.0,0.0,-1.6311052972098805,-8.629851341247559,-4.180834286811016,-0.0012276383937892359,0.0009231538729513529,-0.002731246535655604,0.08971900292153903,0.06535136084205022,0.029937731727542265,0.0,0.0,0.0,0.0,0.0,0.0
0.0,0.0,0.0,-1.6431809730044211,-8.6161751220599,-4.190174685518439,-0.0012276383937892359,0.0009231538729513529,-0.002731246535655604,0.08971900292153903,0.06535136084205022,0.029937731727542265,0.0,0.0,0.0,0.0,0.0,0.0
0.0,0.0,0.0,-1.6530503730301547,-8.59150177196001,-4.195109355538418,-0.0012276383937892359,0.0009231538729513529,-0.002731246535655604,0.08971900292153903,0.06535136084205022,0.029937731727542265,0.0,0.0,0.0,0.0,0.0,0.0
0.0,0.001745329238474369,0.0,-1.662925755264685,-8.586420094253942,-4.1860422387076905,-0.0012276383937892359,0.0009231538729513529,-0.002731246535655604,0.08971900292153903,0.06535136084205022,0.029937731727542265,0.0,0.0,0.0,0.0,0.0,0.0
0.0,0.001745329238474369,0.0,-1.6728021313902768,-8.596296470379535,-4.166289486456507,-0.0012276383937892359,0.0009231538729513529,-0.002731246535655604,0.08971900292153903,0.06535136084205022,0.029937731727542265,0.0,0.0,0.0,0.0,0.0,0.0
0.0,0.0,0.0,-1.6798069835101659,-8.614781122543933,-4.15514966245541,-0.0012276383937892359,0.0009231538729513529,-0.002731246535655604,0.08971900292153903,0.06535136084205022,0.029937731727542265,0.0,0.0,0.0,0.0,0.0,0.0
0.0,0.0,-0.001745329238474369,-1.6847414180637115,-8.639453775174985,-4.150215227901865,-0.0012276383937892359,0.0009231538729513529,-0.002731246535655604,0.08971900292153903,0.06535136084205022,0.029937731727542265,0.0007995479608895356,-6.993994253339445e-05,0.0005774146793546425,-0.03112104269835361,0.020025695404050248,-0.015248018057139781
0.0,0.0,-0.001745329238474369,-1.6750031109300447,-8.649465560913086,-4.154083222367008,-0.0012276383937892359,0.0009231538729513529,-0.002731246535655604,0.08971900292153903,0.06535136084205022,0.029937731727542265,0.0007995479607859358,-6.99399425369177e-05,0.0005774146793817188,-0.021364832402162307,0.010016603052881042,-0.019129148688538346
0.0,0.0,-0.001745329238474369,-1.6552531736504261,-8.649465560913086,-4.163958191006818,-0.0012276383937892359,0.0009231538729513529,-0.002731246535655604,0.08971900292153903,0.06535136084205022,0.029937731727542265,0.0007995479609384139,-6.993994260735626e-05,0.0005774146792554472,-0.0015969936824195333,0.010019296151981983,-0.02901725229077983
0.0,0.0,-0.001745329238474369,-1.6355028959537397,-8.637450997002857,-4.170829743644598,-0.0012276383937892359,0.0009231538729513529,-0.002731246535655604,0.08971900292153903,0.06535136084205022,0.029937731727542265,0.0021753413971975673,-0.0004487290971662071,0.0016407412198773082,-0.0005013339600104655,0.0159537127296736,-0.026313690263427048
-0.001745329238474369,0.0,-0.003490658476948738,-1.6157641678562213,-8.617711849005149,-4.175764410672541,-0.0012276383937892359,0.0009231538729513529,-0.002731246535655604,0.08971900292153903,0.06535136084205022,0.029937731727542265,0.002646475454944277,-0.0010589729311509216,0.0016084737080203789,-0.010854171586769908,0.0258859526616322,-0.015782546349518915
-0.003490658476948738,0.001745329238474369,-0.005235987715423107,-1.6082905530929565,-8.61637517776868,-4.1837699111976345,-0.0012276383937892359,0.0009231538729513529,-0.002731246535655604,0.08971900292153903,0.06535136084205022,0.029937731727542265,0.0009011413173348863,0.0006863580557346811,-0.0001368488836061659,-0.0034338484858025663,0.027199374034140415,-0.023718167885026505
-0.003490658476948738,0.001745329238474369,-0.005235987715423107,-1.6082905530929565,-8.626251082513203,-4.193645815942159,-0.0012276383937892359,0.0009231538729513529,-0.002731246535655604,0.08971900292153903,0.06535136084205022,0.029937731727542265,0.0009011413181286149,0.0006863580545282346,-0.00013684888469851826,-0.003487155190367876,0.017300211939295703,-0.033524173968698355
-0.005235987715423107,0.0,-0.005235987715423107,-1.6114268222526738,-8.639260453722253,-4.190973536357079,-0.0012276383937892359,0.0009231538729513529,-0.002731246535655604,0.08971900292153903,0.06535136084205022,0.029937731727542265,-0.0008831460754945405,-0.00027573273289927864,-0.0013662280751073543,-0.0022341418224479004,0.0063981731656703135,-0.03349698593390005
-0.003490658476948738,0.0,-0.003490658476948738,-1.6163664110769767,-8.654079700559727,-4.1810943587084735,-0.0012276383937892359,0.0009231538729513529,-0.002731246535655604,0.08971900292153903,0.06535136084205022,0.029937731727542265,0.0008054259296725262,0.0008652201384773034,-0.0014117291538472538,-0.0007203721313342051,-0.005345459583714638,-0.027506958004776788
-0.003490658476948738,-0.001745329238474369,-0.001745329238474369,-1.618097186088562,-8.646454050959923,-4.177632808685303,-0.0012276383937892359,0.0009231538729513529,-0.002731246535655604,0.08971900292153903,0.06535136084205022,0.029937731727542265,0.000805428422271162,-0.0008801158331980332,0.0003335933495513077,-0.002418045959265271,0.0022451193072025926,-0.02398585136041109
-0.003490658476948738,-0.001745329238474369,0.0,-1.618097186088562,-8.626706473841129,-4.177632808685303,-0.0012276383937892359,0.0009231538729513529,-0.002731246535655604,0.08971900292153903,0.06535136084205022,0.029937731727542265,0.0008054323481015366,-0.0008801225691937686,0.0020789225879451674,-0.0023849257309277168,0.0219576052480564,-0.023926261271829195
-0.001745329238474369,-0.001745329238474369,0.0,-1.6311870894500113,-8.606954844670552,-4.180905274580653,-0.0012276383937892359,0.0009231538729513529,-0.002731246535655604,0.08971900292153903,0.06535136084205022,0.029937731727542265,0.001073585055330178,-0.0019968766105729957,0.0017169210515085615,0.0057571345718986176,0.031174356557959297,-0.02722989329314528
0.0,0.0,0.0,-1.6509305277866595,-8.58721146633396,-4.185841119164801,-0.0012276383937892359,0.0009231538729513529,-0.002731246535655604,0.08971900292153903,0.06535136084205022,0.029937731727542265,0.0008692762204171611,-0.0017254837830251088,0.0012391412055854367,0.014022038103830169,0.037038466678447825,-0.03225371665099901
0.0,0.0,0.0,-1.6673415417410418,-8.597514350370812,-4.184100206860652,-0.0012276383937892359,0.0009231538729513529,-0.002731246535655604,0.08971900292153903,0.06535136084205022,0.029937731727542265,0.0008692762212284084,-0.0017254837828335372,0.0012391412052511822,-0.0023648032552571548,0.026732767791213502,-0.030517096264060333
0.001745329238474369,0.001745329238474369,-0.001745329238474369,-1.6821539849170897,-8.622201755664225,-4.1791627258019695,-0.0012276383937892359,0.0009231538729513529,-0.002731246535655604,0.08971900292153903,0.06535136084205022,0.029937731727542265,0.0026146104957260486,1.9841393198255776e-05,-0.0005061870582916594,-0.017153078419959857,0.0020425480864151627,-0.025583906257724547
0.0,0.003490658476948738,-0.001745329238474369,-1.683335541666126,-8.619626757444667,-4.174224614084339,-0.0012276383937892359,0.0009231538729513529,-0.002731246535655604,0.08971900292153903,0.06535136084205022,0.029937731727542265,0.0016474607741688758,0.0016452940012643192,-0.0008611469217134532,-0.023293575208730828,-0.005788825111785325,-0.02161038482093977
0.0,0.003490658476948738,0.0,-1.6783978249619005,-8.604813607331991,-4.169286897380113,-0.0012276383937892359,0.0009231538729513529,-0.002731246535655604,0.08971900292153903,0.06535136084205022,0.029937731727542265,0.002578224764296948,0.0015019023523620467,0.00045962363207518406,-0.024285526797715264,-0.0034317464722917403,-0.017808071358942485
-0.001745329238474369,0.001745329238474369,0.0,-1.6665108281032064,-8.58652974203637,-4.174777025801882,-0.0012276383937892359,0.0009231538729513529,-0.002731246535655604,0.08971900292153903,0.06535136084205022,0.029937731727542265,0.0008328905405300915,-0.00024342190217346255,0.0004596183301561913,-0.012360227884171902,0.014827956645836407,-0.023264093344491272
-0.001745329238474369,0.0,0.0,-1.651698384927158,-8.56677981780164,-4.184651987919248,-0.0012276383937892359,0.0009231538729513529,-0.002731246535655604,0.08971900292153903,0.06535136084205022,0.029937731727542265,0.0008328855537722504,-0.0019887511409415496,0.00045961536542295857,0.002490528011895555,0.03455371149560131,-0.03310493930378015
-0.001745329238474369,0.0,0.0,-1.6439736154666669,-8.578922638991871,-4.187439441680908,-0.0012276383937892359,0.0009231538729513529,-0.002731246535655604,0.08971900292153903,0.06535136084205022,0.029937731727542265,0.0012219536502532124,-0.0011516379633516726,0.0024086423284936497,-0.0053425051824906155,0.03651247276704226,-0.03251015521066079
-0.001745329238474369,0.0,-0.001745329238474369,-1.6390384205289328,-8.603598313723394,-4.187439441680908,-0.0012276383937892359,0.0009231538729513529,-0.002731246535655604,0.08971900292153903,0.06535136084205022,0.029937731727542265,0.0016444940275445747,-0.00024250264667802235,0.0027800294100982104,-0.017340614832069775,0.02715817038472317,-0.028834952183187247
-0.001745329238474369,-0.001745329238474369,-0.003490658476948738,-1.630492246051416,-8.617456281284705,-4.187439441680908,-0.0012276383937892359,0.0009231538729513529,-0.002731246535655604,0.08971900292153903,0.06535136084205022,0.029937731727542265,0.0016444964726189829,-0.0019878271389580297,0.001034695424304402,-0.00882651271955125,0.013285146167094176,-0.02879058785065788
-0.001745329238474369,0.0,-0.005235987715423107,-1.6206158832387576,-8.627332644097363,-4.187439441680908,-0.0012276383937892359,0.0009231538729513529,-0.002731246535655604,0.08971900292153903,0.06535136084205022,0.029937731727542265,0.0016444910393863816,-0.00024249315459370729,-0.0007106290668627583,0.0010177717919836468,0.003393723457650021,-0.028746215134815775
-0.001745329238474369,0.0,-0.005235987715423107,-1.618097186088562,-8.61881712409869,-4.187439441680908,-0.0012276383937892359,0.0009231538729513529,-0.002731246535655604,0.08971900292153903,0.06535136084205022,0.029937731727542265,0.0019888143394401494,-0.0016537632886246543,-0.0016000299586106507,0.0092368319752426,0.012674572781030267,-0.02874460672774709
-0.003490658476948738,0.001745329238474369,-0.003490658476948738,-1.618097186088562,-8.604008892991791,-4.187439441680908,-0.0012276383937892359,0.0009231538729513529,-0.002731246535655604,0.08971900292153903,0.06535136084205022,0.029937731727542265,0.0005828149396850701,-0.0012992502995210183,-0.0007312118004734286,0.014858690297635015,0.02822939742295986,-0.028728758206683976
-0.003490658476948738,0.001745329238474369,-0.001745329238474369,-1.629331687906994,-8.607921079791721,-4.187439441680908,-0.0012276383937892359,0.0009231538729513529,-0.002731246535655604,0.08971900292153903,0.06535136084205022,0.029937731727542265,0.0005828102824310963,-0.0012992565469355382,0.001014117437343726,0.003601220392135127,0.024287349518340495,-0.028657307254051582
-0.003490658476948738,0.003490658476948738,-0.001745329238474369,-1.6441462921544436,-8.61779744260438,-4.187439441680908,-0.0012276383937892359,0.0009231538729513529,-0.002731246535655604,0.08971900292153903,0.06535136084205022,0.029937731727542265,0.0005828102208567366,0.00044607269186429263,0.0010141236849397224,-0.011236356675776465,0.01438111942688788,-0.028585843092628162
0.0,0.003490658476948738,-0.001745329238474369,-1.6589599921410465,-8.63911639227489,-4.191253704299701,-0.0012276383937892359,0.0009231538729513529,-0.002731246535655604,0.08971900292153903,0.06535136084205022,0.029937731727542265,0.002710741629547465,0.00046615776714760014,-5.79532669474262e-07,-0.01217456576292938,0.001024684737564943,-0.02543638119017949
0.0,0.003490658476948738,0.0,-1.6737668192248951,-8.663794917392176,-4.19618931332765,-0.0012276383937892359,0.0009231538729513529,-0.002731246535655604,0.08971900292153903,0.06535136084205022,0.029937731727542265,0.0014924105700813957,0.00048411708219440737,0.0008375556188633721,-0.01455623872571837,-0.01652836151206252,-0.024168315202131717
0.0,0.003490658476948738,0.0,-1.6691750982671838,-8.649673436974261,-4.201127077178663,-0.0012276383937892359,0.0009231538729513529,-0.002731246535655604,0.08971900292153903,0.06535136084205022,0.029937731727542265,0.0014924105698354334,0.0004841170818556539,0.0008375556192392745,-0.009945035497078347,-0.002418011229491529,-0.029091110050131725
0.0,0.001745329238474369,0.0,-1.6592987354545257,-8.624982049714918,-4.206065258584993,-0.0012276383937892359,0.0009231538729513529,-0.002731246535655604,0.08971900292153903,0.06535136084205022,0.029937731727542265,0.0014924064129114537,-0.0012612121563212488,0.000837555037533999,-4.9188698493716924e-05,0.0222622447368264,-0.034014320940020486
0.0,0.001745329238474369,0.0,-1.6533735729464196,-8.600293386582685,-4.207052707672119,-0.0012276383937892359,0.0009231538729513529,-0.002731246535655604,0.08971900292153903,0.06535136084205022,0.029937731727542265,0.002501526448415629,-0.0015149433719562836,0.0013711648347223262,0.00032505677676111035,0.03332558685473915,-0.03142091935305951
-0.001745329238474369,0.003490658476948738,0.0,-1.6484377314668373,-8.575614179184772,-4.207052707672119,-0.0012276383937892359,0.0009231538729513529,-0.002731246535655604,0.08971900292153903,0.06535136084205022,0.029937731727542265,0.0015739208752745127,2.477903307745743e-05,0.0018035675437558581,0.0007520006890985807,0.04695333805617677,-0.028493318205506282
-0.001745329238474369,0.003490658476948738,-0.001745329238474369,-1.6515343905234787,-8.59511466070679,-4.207052707672119,-0.0012276383937892359,0.0009231538729513529,-0.002731246535655604,0.08971900292153903,0.06535136084205022,0.029937731727542265,0.001573926457326044,2.4783624474192605e-05,5.8238305888088094e-05,-0.002351303118616977,0.02742665507169803,-0.028436483471233783
-0.001745329238474369,0.005235987715423107,-0.001745329238474369,-1.656472571929808,-8.624743749144764,-4.207052707672119,-0.0012276383937892359,0.0009231538729513529,-0.002731246535655604,0.08971900292153903,0.06535136084205022,0.029937731727542265,0.001573928493728795,0.0017701128630811824,5.824289685547674e-05,-0.007296130330536911,-0.002228637595624011,-0.028379643530675656
-0.003490658476948738,0.001745329238474369,-0.001745329238474369,-1.6573238372802734,-8.638024634787019,-4.215225603813148,-0.0012276383937892359,0.0009231538729513529,-0.002731246535655604,0.08971900292153903,0.06535136084205022,0.029937731727542265,-0.0008043915529899771,0.0005254473499623088,-0.00030444330494100983,-0.00829902339915893,-0.014785513760575663,-0.03166669435596609
-0.003490658476948738,0.0,-0.001745329238474369,-1.6573238372802734,-8.647896797746327,-4.225097286772312,-0.0012276383937892359,0.0009231538729513529,-0.002731246535655604,0.08971900292153903,0.06535136084205022,0.029937731727542265,-0.0012687281269766666,0.00042769619608281435,-0.0005704851475330864,-0.008380329569050354,-0.02412845805022853,-0.03796282354056331
-0.001745329238474369,-0.001745329238474369,0.0,-1.6531706654995904,-8.620392954561133,-4.222512801882647,-0.0012276383937892359,0.0009231538729513529,-0.002731246535655604,0.08971900292153903,0.06535136084205022,0.029937731727542265,0.00047660066017279846,-0.00131763864189745,0.001174838942623106,-0.004178807809714948,0.0033580300475668998,-0.03536251376368893
0.0,0.0,0.0,-1.6482327197384894,-8.585826854028646,-4.217574856121546,-0.0012276383937892359,0.0009231538729513529,-0.002731246535655604,0.08971900292153903,0.06535136084205022,0.029937731727542265,0.0022219333156578763,0.00042768717953727356,0.0011748381597705606,0.0008074924983632326,0.037906773618869245,-0.03040874182326683
0.0,0.0,0.0,-1.6559620648992268,-8.580818176269531,-4.2041920497458865,-0.0012276383937892359,0.0009231538729513529,-0.002731246535655604,0.08971900292153903,0.06535136084205022,0.029937731727542265,0.0012288987365091945,7.91591380195853e-05,0.0026643908871033734,0.0023707103987048324,0.045513565750509986,-0.033762435081436934
0.0,0.0,-0.001745329238474369,-1.665833276791253,-8.580818176269531,-4.189385231907847,-0.0012276383937892359,0.0009231538729513529,-0.002731246535655604,0.08971900292153903,0.06535136084205022,0.029937731727542265,0.0005704765738211363,-0.00015193030138448209,0.0019066955922421884,-0.0013592008643843365,0.04724742000717725,-0.030067473863413394
0.0,0.001745329238474369,-0.003490658476948738,-1.6714190007166099,-8.606549358913917,-4.187439441680908,-0.0012276383937892359,0.0009231538729513529,-0.002731246535655604,0.08971900292153903,0.06535136084205022,0.029937731727542265,0.0005704728591955906,0.001593397494339515,0.00016136491120125203,-0.00695693488809703,0.021527226948583056,-0.028139459900235263
0.0,0.0,-0.003490658476948738,-1.6763555362479376,-8.636168572101884,-4.187439441680908,-0.0012276383937892359,0.0009231538729513529,-0.002731246535655604,0.08971900292153903,0.06535136084205022,0.029937731727542265,0.0005704748807138552,-0.00015193174417483927,0.00016136635377456918,-0.011905479439536933,-0.008080997752268098,-0.028157234474229544
0.0,0.0,-0.003490658476948738,-1.6682245678108916,-8.639657974243164,-4.187439441680908,-0.0012276383937892359,0.0009231538729513529,-0.002731246535655604,0.08971900292153903,0.06535136084205022,0.029937731727542265,0.0005424927362573711,-6.916609385085509e-05,-0.0005451635996982087,-0.022341452707975933,-0.009205901121882938,-0.027218881491541492
0.0,0.0,-0.001745329238474369,-1.65834867628869,-8.639657974243164,-4.187439441680908,-0.0012276383937892359,0.0009231538729513529,-0.002731246535655604,0.08971900292153903,0.06535136084205022,0.029937731727542265,0.000525786282597798,-1.9746048806109863e-05,0.0007783008244213559,-0.023540283550072323,-0.007792481858310531,-0.02666667877721519
0.0,0.0,0.0,-1.6440528202919271,-8.617539702219052,-4.187439441680908,-0.0012276383937892359,0.0009231538729513529,-0.002731246535655604,0.08971900292153903,0.06535136084205022,0.029937731727542265,0.0005257882659956579,-1.9744507911519893e-05,0.0025236300627647936,-0.009230365601831854,0.01433228653651313,-0.026685947794041535
0.0,0.0,-0.001745329238474369,-1.629240326877768,-8.592852313228637,-4.187439441680908,-0.0012276383937892359,0.0009231538729513529,-0.002731246535655604,0.08971900292153903,0.06535136084205022,0.029937731727542265,0.0005257862830139745,-1.974604858647708e-05,0.0007783008241208449,0.0055961937228198875,0.03902617370393107,-0.0267052223346743
0.0,0.0,-0.003490658476948738,-1.6234115884806548,-8.617578629746138,-4.1964239028879335,-0.0012276383937892359,0.0009231538729513529,-0.002731246535655604,0.08971900292153903,0.06535136084205022,0.029937731727542265,0.002794767116983989,0.0004122201165332686,0.0009931589851612727,-0.012096247600779628,0.028557952964889437,-0.024503098524874242
-0.001745329238474369,-0.001745329238474369,-0.005235987715423107,-1.6184757501050455,-8.647194139999636,-4.206295579639153,-0.0012276383937892359,0.0009231538729513529,-0.002731246535655604,0.08971900292153903,0.06535136084205022,0.029937731727542265,0.0022674125203633842,-0.0011012319626364994,0.0003000373979766793,-0.019818225906736868,0.006583437135537221,-0.028330873213957403
-0.003490658476948738,-0.001745329238474369,-0.005235987715423107,-1.6044197477229298,-8.649465560913086,-4.207052707672119,-0.0012276383937892359,0.0009231538729513529,-0.002731246535655604,0.08971900292153903,0.06535136084205022,0.029937731727542265,0.0005220832819653434,-0.0011012381204467642,0.0003000408387531067,-0.005807156643222863,0.004294445857306392,-0.02903356565659732
-0.005235987715423107,0.0,-0.005235987715423107,-1.5896066173078471,-8.649465560913086,-4.207052707672119,-0.0012276383937892359,0.0009231538729513529,-0.002731246535655604,0.08971900292153903,0.06535136084205022,0.029937731727542265,-0.0012232521144738624,0.00064408495974547,0.000300050394491385,0.008961040991872653,0.004276874794054616,-0.028979130012218374
-0.003490658476948738,0.0,-0.003490658476948738,-1.597934531514757,-8.617064755343826,-4.207052707672119,-0.0012276383937892359,0.0009231538729513529,-0.002731246535655604,0.08971900292153903,0.06535136084205022,0.029937731727542265,-0.001998097935501778,0.0002309593352692103,-0.0008769447262199799,0.027541126763915957,0.013355929776694924,-0.03343018389860432
-0.001745329238474369,0.0,-0.001745329238474369,-1.6078104230369585,-8.582498654811339,-4.207052707672119,-0.0012276383937892359,0.0009231538729513529,-0.002731246535655604,0.08971900292153903,0.06535136084205022,0.029937731727542265,-0.0014628361367755294,3.259581045252602e-05,-0.000534772650700517,0.030621494837338434,0.0367291836282142,-0.03559273340276838
0.001745329238474369,0.0,0.0,-1.6364571352700208,-8.594901438825406,-4.202358286820161,-0.0012276383937892359,0.0009231538729513529,-0.002731246535655604,0.08971900292153903,0.06535136084205022,0.029937731727542265,0.002027824438208924,3.259120926279057e-05,0.001210552391991904,0.00201808914240781,0.024329776470179372,-0.030923106218410584
0.001745329238474369,0.0,0.0,-1.6660778025146272,-8.609711742442071,-4.197421518947939,-0.0012276383937892359,0.0009231538729513529,-0.002731246535655604,0.08971900292153903,0.06535136084205022,0.029937731727542265,0.002027824438460998,3.259120884303459e-05,0.0012105523915878966,-0.02755925108051085,0.009522851085715999,-0.026011143879876367
0.001745329238474369,0.0,0.0,-1.676655870918077,-8.634052040024375,-4.187720674034316,-0.0012276383937892359,0.0009231538729513529,-0.002731246535655604,0.08971900292153903,0.06535136084205022,0.029937731727542265,0.0016493214864770655,-0.0014863635109615418,0.0006370919602025289,-0.021793457692553374,0.004168261735616361,-0.037861218871585084
0.001745329238474369,0.0,0.0,-1.6865275476692958,-8.658731711902265,-4.177848997283097,-0.0012276383937892359,0.0009231538729513529,-0.002731246535655604,0.08971900292153903,0.06535136084205022,0.029937731727542265,0.0014873313415897757,-0.002136433339425875,0.00039166801449293524,-0.024648999073165756,-0.012382849949531686,-0.03722862643537253
0.001745329238474369,0.001745329238474369,0.0,-1.6722555800764738,-8.639954182673687,-4.167974037891558,-0.0012276383937892359,0.0009231538729513529,-0.002731246535655604,0.08971900292153903,0.06535136084205022,0.029937731727542265,0.0014873364777875397,-0.00039110410128698924,0.000391664753138428,-0.010338485139707528,0.006399956978389837,-0.02738088079670425
0.0,0.003490658476948738,0.001745329238474369,-1.6574417527070744,-8.620201932643361,-4.158098152978626,-0.0012276383937892359,0.0009231538729513529,-0.002731246535655604,0.08971900292153903,0.06535136084205022,0.029937731727542265,-0.00025799028780014796,0.0013542335355628684,0.002136988066016158,0.004513892337462486,0.02615748487957722,-0.017532212117720512
0.0,0.003490658476948738,0.0,-1.6475274389465184,-8.605350200064436,-4.162917712089931,-0.0012276383937892359,0.0009231538729513529,-0.002731246535655604,0.08971900292153903,0.06535136084205022,0.029937731727542265,0.00010864745654495277,0.0022131443033118997,0.0022883417455289053,-0.007829838490633081,0.0284321198581131,-0.024352376678638488
0.0,0.001745329238474369,0.0,-1.637710452079773,-8.590733350787726,-4.16779904030905,-0.0012276383937892359,0.0009231538729513529,-0.002731246535655604,0.08971900292153903,0.06535136084205022,0.029937731727542265,0.0002476701174744401,0.0007935025449521772,0.003007535505171968,-0.006461394622230385,0.038287744242890616,-0.030004916729843945
0.0,0.0,-0.001745329238474369,-1.637710452079773,-8.610482293682171,-4.162861804585438,-0.0012276383937892359,0.0009231538729513529,-0.002731246535655604,0.08971900292153903,0.06535136084205022,0.029937731727542265,0.000247670786947634,-0.0009518288452183014,0.0012622084181755028,-0.006467739261418138,0.018550273742100006,-0.02508899395489578
0.0,0.0,-0.003490658476948738,-1.637615464652628,-8.629946328674704,-4.158304504975527,-0.0012276383937892359,0.0009231538729513529,-0.002731246535655604,0.08971900292153903,0.06535136084205022,0.029937731727542265,0.00024767084992037065,-0.0009518309968528237,-0.0004831208203013487,-0.006379096479896383,-0.0009022889137366918,-0.02055300732239281
0.0,0.001745329238474369,-0.005235987715423107,-1.6326779901145216,-8.634883803212809,-4.173116928589845,-0.0012276383937892359,0.0009231538729513529,-0.002731246535655604,0.08971900292153903,0.06535136084205022,0.029937731727542265,0.000201678015205786,0.0015783227179622466,-0.0002468013064445109,-0.01868724218983508,-0.009650108804941507,-0.01367484514424563
0.001745329238474369,0.001745329238474369,-0.005235987715423107,-1.6274195235812354,-8.638689383237299,-4.18776230534953,-0.0012276383937892359,0.0009231538729513529,-0.002731246535655604,0.08971900292153903,0.06535136084205022,0.029937731727542265,0.0019316763717378619,0.001839938811407534,0.0004137464353962983,-0.019216561947425888,-0.014709158430956248,-0.02110857120077453
0.0,0.0,-0.005235987715423107,-1.612604292456755,-8.609058920988339,-4.197639126099183,-0.0012276383937892359,0.0009231538729513529,-0.002731246535655604,0.08971900292153903,0.06535136084205022,0.029937731727542265,0.0001863535417511759,9.460316396303425e-05,0.00041375095689465705,-0.004454395658650877,0.014944768357040394,-0.031012507589835935
0.0,0.0,-0.005235987715423107,-1.5991758062873287,-8.5817406911895,-4.206130192752149,-0.0012276383937892359,0.0009231538729513529,-0.002731246535655604,0.08971900292153903,0.06535136084205022,0.029937731727542265,0.00018635354189927152,9.46031642945601e-05,0.00041375095677486165,0.008921040517222447,0.04228645556451639,-0.039530682100142885
-0.001745329238474369,-0.003490658476948738,-0.003490658476948738,-1.6139861003295877,-8.601487749912513,-4.186383134029137,-0.0012276383937892359,0.0009231538729513529,-0.002731246535655604,0.08971900292153903,0.06535136084205022,0.029937731727542265,-0.0004201548186885802,-0.0011968220452149992,-0.0011850697417607877,0.013863764819138555,0.033627698777642254,-0.04460954013573239
-0.001745329238474369,-0.005235987715423107,-0.001745329238474369,-1.6284989012799274,-8.62063978683083,-4.167231097110821,-0.0012276383937892359,0.0009231538729513529,-0.002731246535655604,0.08971900292153903,0.06535136084205022,0.029937731727542265,-8.978793627501863e-05,-0.0023041583540357137,-0.0004098752138877667,0.005139694302665767,0.01768267941891929,-0.032663393626379704
-0.001745329238474369,-0.005235987715423107,0.0,-1.6383692190206047,-8.630510044580152,-4.157360839361498,-0.0012276383937892359,0.0009231538729513529,-0.002731246535655604,0.08971900292153903,0.06535136084205022,0.029937731727542265,-8.977947495241465e-05,-0.0023041592934935104,0.001335454024071935,-0.004659698456643991,0.007801890717005705,-0.02280047737946052
0.0,-0.001745329238474369,0.0,-1.648242443138773,-8.6378448771079,-4.1493007679796445,-0.0012276383937892359,0.0009231538729513529,-0.002731246535655604,0.08971900292153903,0.06535136084205022,0.029937731727542265,0.0016555558937094337,0.0011864961184703772,0.0013354474383408808,-0.014461964081555333,0.0004565220035094527,-0.014747751679482654
0.0,0.0,0.0,-1.6581187926435796,-8.613154003345885,-4.164115292236854,-0.0012276383937892359,0.0009231538729513529,-0.002731246535655604,0.08971900292153903,0.06535136084205022,0.029937731727542265,0.0009490736763515055,-0.0025611115949797873,0.0009993395807615226,-0.0022509660958015317,0.010140983856925719,-0.012290379312963973
0.0,0.001745329238474369,0.0,-1.667130470275879,-8.591054723672567,-4.178062723092733,-0.0012276383937892359,0.0009231538729513529,-0.002731246535655604,0.08971900292153903,0.06535136084205022,0.029937731727542265,0.0007726209373203169,-0.0021877145968532473,0.0009153911476286402,-0.005743181708774235,0.028490154038248897,-0.021920964743041775
0.0,0.005235987715423107,0.0,-1.667130470275879,-8.595991020546565,-4.182999019966731,-0.0012276383937892359,0.0009231538729513529,-0.002731246535655604,0.08971900292153903,0.06535136084205022,0.029937731727542265,0.0007726289113171698,0.0013029438800557223,0.0009153891496547423,-0.005735203598660547,0.023550649058866106,-0.026853943117925147
0.0,0.005235987715423107,0.0,-1.6676269079689148,-8.603906554389507,-4.187439441680908,-0.0012276383937892359,0.0009231538729513529,-0.002731246535655604,0.08971900292153903,0.06535136084205022,0.029937731727542265,0.0007726289112550258,0.0013029438799702798,0.0009153891498370673,-0.0062236632213728835,0.015631907077888654,-0.03129104626889774
0.0,0.005235987715423107,0.0,-1.6725650827213179,-8.63847425788338,-4.187439441680908,-0.0012276383937892359,0.0009231538729513529,-0.002731246535655604,0.08971900292153903,0.06535136084205022,0.029937731727542265,0.001352660033420523,0.0018708357997520072,0.0015158964937686725,-0.0164859685147221,-0.002792582617782192,-0.02181012437351765
-0.001745329238474369,0.005235987715423107,0.0,-1.6758094738273597,-8.665132069020071,-4.18800325640297,-0.0012276383937892359,0.0009231538729513529,-0.002731246535655604,0.08971900292153903,0.06535136084205022,0.029937731727542265,-0.00026988083484764193,0.0019910567729245878,0.001643015046304595,-0.02085830404943855,-0.02603896066146681,-0.020354143599496537
-0.001745329238474369,0.003490658476948738,0.0,-1.665934060114623,-8.630567640843946,-4.192940963259339,-0.0012276383937892359,0.0009231538729513529,-0.002731246535655604,0.08971900292153903,0.06535136084205022,0.029937731727542265,-0.0002698832243989784,0.00024572753440619524,0.0016430145021840462,-0.010983578303506453,0.008518073354097416,-0.025276231437602072
0.0,0.001745329238474369,-0.001745329238474369,-1.6547920594306151,-8.599165557182932,-4.197246074676514,-0.0012276383937892359,0.0009231538729513529,-0.002731246535655604,0.08971900292153903,0.06535136084205022,0.029937731727542265,0.00147544872275912,-0.0014996035492518657,-0.00010231018249185698,0.00015773423700157503,0.03991276214602534,-0.029565722365080233
0.0,0.0,-0.001745329238474369,-1.635044940696363,-8.589292027821427,-4.197246074676514,-0.0012276383937892359,0.0009231538729513529,-0.002731246535655604,0.08971900292153903,0.06535136084205022,0.029937731727542265,0.0004916028179829708,-0.0003687670510424587,0.0031006020848790097,-0.007620238969141641,0.04114190473032272,-0.03966935228951101
0.0,0.0,-0.005235987715423107,-1.618794785792591,-8.585003774493705,-4.195153275564427,-0.0012276383937892359,0.0009231538729513529,-0.002731246535655604,0.08971900292153903,0.06535136084205022,0.029937731727542265,0.0003186486873900428,0.0001368263197891637,0.00017297898700363652,0.003751036804733984,0.04392872671716926,-0.0393738828165839
0.0,0.0,-0.005235987715423107,-1.6237331928187655,-8.614634216650753,-4.180338054485904,-0.0012276383937892359,0.0009231538729513529,-0.002731246535655604,0.08971900292153903,0.06535136084205022,0.029937731727542265,0.0003186486874478856,0.0001368263195204415,0.00017297898712923467,-0.0012347916363132864,0.014319397220726612,-0.024583117067213594
0.0,0.0,-0.005235987715423107,-1.6302043634459717,-8.639657974243164,-4.167826175689697,-0.0012276383937892359,0.0009231538729513529,-0.002731246535655604,0.08971900292153903,0.06535136084205022,0.029937731727542265,0.0003186486874215225,0.00013682631962694294,0.000172978987274647,-0.0077533749002514744,-0.010683252086968902,-0.012095688888094903
0.0,0.0,-0.001745329238474369,-1.6450168373020553,-8.639657974243164,-4.167826175689697,-0.0012276383937892359,0.0009231538729513529,-0.002731246535655604,0.08971900292153903,0.06535136084205022,0.029937731727542265,0.00035370512105991275,0.0013254736100911358,0.00010447570310852769,-0.016885484682125626,-0.015942301526795957,-0.018496777438220115
0.0,-0.001745329238474369,0.0,-1.6539811778486022,-8.634644000333106,-4.16866183800804,-0.0012276383937892359,0.0009231538729513529,-0.002731246535655604,0.08971900292153903,0.06535136084205022,0.029937731727542265,0.0003586777834017692,-0.0002512606033241791,0.0013449855894966938,-0.024994502257234125,-0.01167187315576253,-0.020265714068166227
0.0,-0.001745329238474369,0.0,-1.6342377767597447,-8.605028988699734,-4.173597673280269,-0.0012276383937892359,0.0009231538729513529,-0.002731246535655604,0.08971900292153903,0.06535136084205022,0.029937731727542265,0.000358677785415378,-0.0002512606028753204,0.001344985588985234,-0.00519540678174654,0.0179462777930308,-0.025230986824291174
0.0,-0.001745329238474369,0.0,-1.6190000100573427,-8.583526648175873,-4.1767299847165225,-0.0012276383937892359,0.0009231538729513529,-0.002731246535655604,0.08971900292153903,0.06535136084205022,0.029937731727542265,0.00035867778483209066,-0.0002512606029839202,0.0013449855891973035,0.010098085816657026,0.039451759159134354,-0.028392752833477333
0.0,0.0,0.0,-1.6239370070348098,-8.598337639108275,-4.171792987739055,-0.0012276383937892359,0.0009231538729513529,-0.002731246535655604,0.08971900292153903,0.06535136084205022,0.029937731727542265,0.0025716124031556972,0.00035343601303391325,0.0028302182230937277,0.011124399410140953,0.05080296965281203,-0.02420546696824133
-0.001745329238474369,0.0,0.0,-1.6308077844316102,-8.616046076552069,-4.167826175689697,-0.0012276383937892359,0.0009231538729513529,-0.002731246535655604,0.08971900292153903,0.06535136084205022,0.029937731727542265,0.0010690866876030256,0.0002282847773723334,0.002993180344800785,0.004913047116961012,0.035951017973660536,-0.020293755781850397
-0.003490658476948738,0.0,-0.001745329238474369,-1.64562095517927,-8.645672778183311,-4.167826175689697,-0.0012276383937892359,0.0009231538729513529,-0.002731246535655604,0.08971900292153903,0.06535136084205022,0.029937731727542265,-0.0006762450792170686,0.00022828768647683998,0.0012478536347636947,-0.009893765607359866,0.006308773928657223,-0.020263948826893443
-0.003490658476948738,0.0,-0.003490658476948738,-1.6542134002419828,-8.664931493497077,-4.169899791979607,-0.0012276383937892359,0.0009231538729513529,-0.002731246535655604,0.08971900292153903,0.06535136084205022,0.029937731727542265,-0.0006762476077100659,0.00022829117089308434,-0.0004974756037939223,-0.018479852550130477,-0.012965483913693414,-0.02230775824232971
-0.003490658476948738,0.0,-0.003490658476948738,-1.6393995227590772,-8.645179256683088,-4.179775670284533,-0.0012276383937892359,0.0009231538729513529,-0.002731246535655604,0.08971900292153903,0.06535136084205022,0.029937731727542265,-0.0008506723609690803,0.000499986857171594,-0.000580927052396315,-0.015273111030897379,-0.011729125837107855,-0.005936300768886265
-0.003490658476948738,0.0,-0.003490658476948738,-1.6279038190841675,-8.626534584505867,-4.189650612842035,-0.0012276383937892359,0.0009231538729513529,-0.002731246535655604,0.08971900292153903,0.06535136084205022,0.029937731727542265,-0.0008645164613056002,0.0005215513387773319,-0.0005875505269848783,-0.004688015682891196,0.005432999193427701,-0.013705586720489597
-0.001745329238474369,0.0,-0.001745329238474369,-1.6279038190841675,-8.611724977911884,-4.199523683904692,-0.0012276383937892359,0.0009231538729513529,-0.002731246535655604,0.08971900292153903,0.06535136084205022,0.029937731727542265,0.0008808159488645747,0.0005215486456117325,0.0011577755397502573,-0.004676490509033283,0.020228549925418962,-0.02355428573404126
-0.003490658476948738,0.0,-0.001745329238474369,-1.6279038190841673,-8.60277724913255,-4.207052707672119,-0.0012276383937892359,0.0009231538729513529,-0.002731246535655604,0.08971900292153903,0.06535136084205022,0.029937731727542265,-0.0008645132893459167,0.0005215482680712099,0.0011577787121725737,-0.0046649630558354815,0.029162220097618558,-0.031058932923863802
-0.003490658476948738,0.0,0.0,-1.6279038190841675,-8.612652656282554,-4.207052707672119,-0.0012276383937892359,0.0009231538729513529,-0.002731246535655604,0.08971900292153903,0.06535136084205022,0.029937731727542265,-0.001638030058409904,-0.000560611885017629,0.000921216422959292,0.009070372386327722,0.02745094844093513,-0.01351899058928745
-0.003490658476948738,0.001745329238474369,0.0,-1.6316302705087493,-8.622528999135339,-4.209536998555506,-0.0012276383937892359,0.0009231538729513529,-0.002731246535655604,0.08971900292153903,0.06535136084205022,0.029937731727542265,-0.0016770561517089392,0.0011301142509302213,0.0008212157925459962,0.00607990292953257,0.017972747044675316,-0.015107368065384427
-0.003490658476948738,0.001745329238474369,0.0,-1.646437827016975,-8.63240066347422,-4.219408662894386,-0.0012276383937892359,0.0009231538729513529,-0.002731246535655604,0.08971900292153903,0.06535136084205022,0.029937731727542265,-0.0016770561509316367,0.0011301142519469776,0.0008212157928836256,-0.008682555772669747,0.008086557243994515,-0.024967539066165167
0.0,0.0,0.0,-1.6573238372802734,-8.633115072547465,-4.224048812985051,-0.0012276383937892359,0.0009231538729513529,-0.002731246535655604,0.08971900292153903,0.06535136084205022,0.029937731727542265,0.0018135981321184276,-0.0006152233750334661,0.0008212131539105149,-0.019523455466832904,0.007357618344786611,-0.029596192606839006
0.0,0.0,0.0,-1.6573238372802734,-8.608424215415504,-4.214172470132265,-0.0012276383937892359,0.0009231538729513529,-0.002731246535655604,0.08971900292153903,0.06535136084205022,0.029937731727542265,0.0008255788449914047,0.0003818060447909585,0.0021942564111034264,-0.0017464421155768855,0.0324424310828867,-0.04254133682734219
0.0,0.0,0.0,-1.6586997882196406,-8.597504563961973,-4.202924854854017,-0.0012276383937892359,0.0009231538729513529,-0.002731246535655604,0.08971900292153903,0.06535136084205022,0.029937731727542265,0.000802873535122708,0.00040471851419042134,0.002225809936883997,-0.002689352752736422,0.043373360533435594,-0.031832974502291694
-0.001745329238474369,0.0,-0.001745329238474369,-1.6636374917946428,-8.622193081836983,-4.188111744129011,-0.0012276383937892359,0.0009231538729513529,-0.002731246535655604,0.08971900292153903,0.06535136084205022,0.029937731727542265,-0.000942458619125936,0.0004047186913900709,0.0004804836143323891,-0.007601946844349631,0.018687112595524392,-0.017035002301760246
-0.001745329238474369,0.0,-0.001745329238474369,-1.6685755942775689,-8.643993486783486,-4.179077932686993,-0.0012276383937892359,0.0009231538729513529,-0.002731246535655604,0.08971900292153903,0.06535136084205022,0.029937731727542265,-0.000944565771462102,0.0003996065474537678,0.0004814656252585844,-0.0125881503780693,-0.003114384327045429,-0.00799222936724553
-0.001745329238474369,0.0,-0.003490658476948738,-1.6735130622975871,-8.658806371001862,-4.184015400707011,-0.0012276383937892359,0.0009231538729513529,-0.002731246535655604,0.08971900292153903,0.06535136084205022,0.029937731727542265,-0.0016163640394265561,-0.001230239695564618,-0.0009507786513194565,-0.04084215297598046,-0.018996826388021564,-0.005260772273494527
0.0,0.0,-0.001745329238474369,-1.6678677505180246,-8.656986234070018,-4.190462553140578,-0.0012276383937892359,0.0009231538729513529,-0.002731246535655604,0.08971900292153903,0.06535136084205022,0.029937731727542265,0.00012896452460659793,-0.001230237703574931,0.0007945512620362973,-0.0351959018113443,-0.017165887795632117,-0.011730651124023177
0.0,0.0,0.0,-1.6382400753980102,-8.617482267073486,-4.200338424838757,-0.0012276383937892359,0.0009231538729513529,-0.002731246535655604,0.08971900292153903,0.06535136084205022,0.029937731727542265,0.00012896385037565594,-0.001230235290788291,0.0025398805004958358,-0.005567286838282074,0.022348885917412114,-0.021629260039132063
0.0,0.003490658476948738,-0.001745329238474369,-1.6165163162401697,-8.590624809265137,-4.208633577520512,-0.0012276383937892359,0.0009231538729513529,-0.002731246535655604,0.08971900292153903,0.06535136084205022,0.029937731727542265,0.0001391404114589735,0.0022250828759745067,0.0008565896128310805,0.015608664365334755,0.04924801372815637,-0.029741984323084343
0.0,0.003490658476948738,-0.001745329238474369,-1.6115786126651677,-8.590624809265137,-4.213571281095514,-0.0012276383937892359,0.0009231538729513529,-0.002731246535655604,0.08971900292153903,0.06535136084205022,0.029937731727542265,0.0004833446780038869,0.0010296617771171825,0.0029554116989488756,0.001982317081752975,0.050303062375455704,-0.027761642323963616
0.0,0.003490658476948738,-0.003490658476948738,-1.6115868767303498,-8.600513940457567,-4.2135630170303315,-0.0012276383937892359,0.0009231538729513529,-0.002731246535655604,0.08971900292153903,0.06535136084205022,0.029937731727542265,0.00048334805348094594,0.0010296601436057663,0.0012100824606568,0.0019146044526156057,0.04043026435826476,-0.027763090791911943
0.0,0.003490658476948738,-0.003490658476948738,-1.6214618127703861,-8.630139228735997,-4.203688080990295,-0.0012276383937892359,0.0009231538729513529,-0.002731246535655604,0.08971900292153903,0.06535136084205022,0.029937731727542265,0.00048334805301309,0.0010296601438003453,0.0012100824605582707,-0.00801979146247589,0.010821312037990067,-0.017897869386553168
0.0,0.001745329238474369,-0.005235987715423107,-1.631336886460799,-8.64774887072953,-4.198962597931813,-0.0012276383937892359,0.0009231538729513529,-0.002731246535655604,0.08971900292153903,0.06535136084205022,0.029937731727542265,0.0005249496605899763,-0.0005910377235180633,-0.0006968325544772951,-0.01724955223882608,-0.007019943157965908,-0.013813371176267877
0.0,0.0,-0.003490658476948738,-1.641210463071248,-8.642811632340585,-4.203899356231457,-0.0012276383937892359,0.0009231538729513529,-0.002731246535655604,0.08971900292153903,0.06535136084205022,0.029937731727542265,0.0012455491564982357,-0.00017714428916229134,-0.00175094977258047,-0.014967627893178903,-0.006363117880653038,-0.02969593121551495
0.0,0.0,-0.001745329238474369,-1.642172703316689,-8.632532001826931,-4.203489721464003,-0.0012276383937892359,0.0009231538729513529,-0.002731246535655604,0.08971900292153903,0.06535136084205022,0.029937731727542265,0.0012455507938267587,-0.00017714432927784114,-5.6205347780146905e-06,-0.015900276737982603,0.003912043517812756,-0.029289124331223826
0.0,0.0,0.0,-1.6273588357439432,-8.612780258430574,-4.193613849765824,-0.0012276383937892359,0.0009231538729513529,-0.002731246535655604,0.08971900292153903,0.06535136084205022,0.029937731727542265,0.0012455524321546385,-0.00017714436856635908,0.0017397087037381528,-0.0010568037567025084,0.02365931560718597,-0.019416081912206666
0.0,0.0,0.0,-1.6236480799686497,-8.602281732723403,-4.187439441680908,-0.0012276383937892359,0.0009231538729513529,-0.002731246535655604,0.08971900292153903,0.06535136084205022,0.029937731727542265,0.0012312462005798156,-0.00021069786289774645,0.0016833466968002627,0.004811355856867981,0.03346840737093522,-0.013531506445808616
0.0,0.0,0.0,-1.6384584148787416,-8.607218491023046,-4.187439441680908,-0.0012276383937892359,0.0009231538729513529,-0.002731246535655604,0.08971900292153903,0.06535136084205022,0.029937731727542265,0.0010674826285155849,-0.0005947822773345748,0.001038174670773611,0.014388244969755931,0.020686294540292697,-0.01681985940810039
0.0,0.0,0.0,-1.653271501863427,-8.612156174449268,-4.189357540873828,-0.0012276383937892359,0.0009231538729513529,-0.002731246535655604,0.08971900292153903,0.06535136084205022,0.029937731727542265,0.0010674826289788252,-0.0005947822762241788,0.0010381746709327148,-0.00038432830697033383,0.01574287901478003,-0.018742902715992094
0.0,0.0,0.0,-1.6680782919746242,-8.617091771153,-4.19429313757756,-0.0012276383937892359,0.0009231538729513529,-0.002731246535655604,0.08971900292153903,0.06535136084205022,0.029937731727542265,0.0010674826286116465,-0.0005947822772000962,0.001038174670750188,-0.015150627766569915,0.0108015532953948,-0.023683440755622558
0.0,0.0,0.0,-1.6709823910928332,-8.612105092013753,-4.195261170616964,-0.0012276383937892359,0.0009231538729513529,-0.002731246535655604,0.08971900292153903,0.06535136084205022,0.029937731727542265,0.0010677566769363132,-0.0007099786087319404,0.0010886329479188634,-0.0191182903647932,0.014964874913357372,-0.025220897344695608
0.0,0.001745329238474369,0.0,-1.6561678867897835,-8.592352419609686,-4.190323002515947,-0.0012276383937892359,0.0009231538729513529,-0.002731246535655604,0.08971900292153903,0.06535136084205022,0.029937731727542265,0.001070061719177587,6.675695889701313e-05,0.0015128960646543573,-0.013548897534514928,0.027837314498078133,-0.025033412729887412
0.0,0.003490658476948738,0.0,-1.647517204284668,-8.58492454014312,-4.187439441680908,-0.0012276383937892359,0.0009231538729513529,-0.002731246535655604,0.08971900292153903,0.06535136084205022,0.029937731727542265,0.0010700643942484476,0.0018120861976314438,0.00151289571846453,-0.004879562190666479,0.03526154652214181,-0.022150002825904395
0.0,0.001745329238474369,0.0,-1.647517204284668,-8.594793844295793,-4.187439441680908,-0.0012276383937892359,0.0009231538729513529,-0.002731246535655604,0.08971900292153903,0.06535136084205022,0.029937731727542265,0.0010700617189376607,6.675695859237667e-05,0.0015128960648672504,-0.00486091466493715,0.025388595906541505,-0.022150153677166693
0.0,0.0,0.0,-1.647517204284668,-8.617382031225905,-4.185320643816339,-0.0012276383937892359,0.0009231538729513529,-0.002731246535655604,0.08971900292153903,0.06535136084205022,0.029937731727542265,0.0010626452377871824,-0.0016834918817972464,0.0020809037503493957,-0.006298295996153078,0.007678378101933008,-0.020867865479377048
0.0,0.0,-0.003490658476948738,-1.647517204284668,-8.656885998222439,-4.180382707967249,-0.0012276383937892359,0.0009231538729513529,-0.002731246535655604,0.08971900292153903,0.06535136084205022,0.029937731727542265,0.0010139637912651698,-0.001715795629188778,0.002319956509543223,-0.015852828101979598,0.00022753752735086977,-0.021422047058152646
0.0,0.0,-0.005235987715423107,-1.64532877768473,-8.667943247093737,-4.177632808685303,-0.0012276383937892359,0.0009231538729513529,-0.002731246535655604,0.08971900292153903,0.06535136084205022,0.029937731727542265,0.0010139655291542713,-0.0017157961004113744,0.0005746272702587968,-0.01374035693401882,-0.010814118253443226,-0.018673404615799354
0.0,0.003490658476948738,-0.005235987715423107,-1.6403928886176191,-8.64326362175858,-4.177632808685303,-0.0012276383937892359,0.0009231538729513529,-0.002731246535655604,0.08971900292153903,0.06535136084205022,0.029937731727542265,0.0010139520065011573,0.0017748623780621039,0.0005746263322812419,-0.00888038743976042,0.013881092197415335,-0.01867466101987115
0.0,0.001745329238474369,-0.005235987715423107,-1.628690127219899,-8.618575935172716,-4.18214297111524,-0.0012276383937892359,0.0009231538729513529,-0.002731246535655604,0.08971900292153903,0.06535136084205022,0.029937731727542265,0.0010830195188223147,2.8616223861300037e-05,0.000265252919486538,0.0006076815393714089,0.03453694900667206,-0.02197649459037685
0.001745329238474369,0.0,-0.003490658476948738,-1.6089393391633071,-8.593887450101978,-4.192018365143536,-0.0012276383937892359,0.0009231538729513529,-0.002731246535655604,0.08971900292153903,0.06535136084205022,0.029937731727542265,0.0031958204876821965,-0.0017215889265187706,0.0003644183303768574,0.008909291839472623,0.03770271251720942,-0.025415487737303573
0.0,0.0,-0.001745329238474369,-1.6054533786878753,-8.592433940587071,-4.194922921813006,-0.0012276383937892359,0.0009231538729513529,-0.002731246535655604,0.08971900292153903,0.06535136084205022,0.029937731727542265,0.0014504894957309475,-0.0017215918846689043,0.002109745814980943,0.012362224276473658,0.03915869774680885,-0.028311736163452474
0.0,0.001745329238474369,-0.003490658476948738,-1.6202580409767051,-8.617108377735121,-4.189988034383395,-0.0012276383937892359,0.0009231538729513529,-0.002731246535655604,0.08971900292153903,0.06535136084205022,0.029937731727542265,0.0014504887811769005,2.3737844427344475e-05,0.0003644170668143749,-0.0024754504287812884,0.014486735042688634,-0.02336854449113096
0.0,0.001745329238474369,-0.003490658476948738,-1.6374616198038425,-8.63940934528947,-4.1826605558440875,-0.0012276383937892359,0.0009231538729513529,-0.002731246535655604,0.08971900292153903,0.06535136084205022,0.029937731727542265,0.0014801941671783712,0.00032516671017509223,-8.069213571480014e-05,-0.014289551197406995,-0.00508021842257624,-0.019260339892961893
-0.001745329238474369,0.0,-0.001745329238474369,-1.6572115388712203,-8.659159684495101,-4.172785626320274,-0.0012276383937892359,0.0009231538729513529,-0.002731246535655604,0.08971900292153903,0.06535136084205022,0.029937731727542265,-0.00013363809815282853,-8.581401811461695e-05,-0.0003057419760606348,-0.010055536372665808,-0.01273845218663371,-0.023665362753028468
-0.001745329238474369,0.0,0.0,-1.6622152281191802,-8.654332861435748,-4.167826175689697,-0.0012276383937892359,0.0009231538729513529,-0.002731246535655604,0.08971900292153903,0.06535136084205022,0.029937731727542265,-0.0001336362598335699,-8.58148613719757e-05,0.0014395872622553513,-0.01502209875526735,-0.007921314716538036,-0.018701151915915804
0.0,0.0,0.0,-1.6523463946281571,-8.624725881101089,-4.167826175689697,-0.0012276383937892359,0.0009231538729513529,-0.002731246535655604,0.08971900292153903,0.06535136084205022,0.029937731727542265,0.0016116929793467754,-8.581769850384164e-05,0.0014395854233041573,-0.005116156005993708,0.02167598449137357,-0.018696394051671113
0.0,0.0,0.0,-1.6424714099619901,-8.605192311601785,-4.1703490575169795,-0.0012276383937892359,0.0009231538729513529,-0.002731246535655604,0.08971900292153903,0.06535136084205022,0.029937731727542265,0.0015251910750421814,-0.000618698224056828,0.0017123541830128726,0.003986697980780587,0.03638403737388534,-0.019151767340133553
0.0,0.0,-0.001745329238474369,-1.6325950137316563,-8.595315975399751,-4.175287225617995,-0.0012276383937892359,0.0009231538729513529,-0.002731246535655604,0.08971900292153903,0.06535136084205022,0.029937731727542265,0.0012005670649720083,-0.002618499773037553,0.0009906747530135638,0.010851591742858376,0.0281798749701779,-0.016343645107266613
0.0,0.003490658476948738,-0.001745329238474369,-1.6382707289985434,-8.600991687674608,-4.177632808685303,-0.0012276383937892359,0.0009231538729513529,-0.002731246535655604,0.08971900292153903,0.06535136084205022,0.029937731727542265,0.0012005670448442792,0.0008721587039765157,0.000990674633191051,0.0051578995506828705,0.022504468808988216,-0.018682425157997326
0.0,0.003490658476948738,-0.001745329238474369,-1.6580075147269053,-8.62072841342313,-4.177632808685303,-0.0012276383937892359,0.0009231538729513529,-0.002731246535655604,0.08971900292153903,0.06535136084205022,0.029937731727542265,0.0012005670443216829,0.0008721587040102021,0.0009906746339741622,-0.014596856319959278,0.002768049058386664,-0.01867562479597683
0.0,0.001745329238474369,-0.001745329238474369,-1.659159391123337,-8.616566263157729,-4.182946839921234,-0.0012276383937892359,0.0009231538729513529,-0.002731246535655604,0.08971900292153903,0.06535136084205022,0.029937731727542265,0.0014453442369589157,-0.0003203844018836427,0.0007558987680504261,-0.018345639312436927,0.0002791165665489274,-0.02191210277190506
-0.001745329238474369,0.0,0.0,-1.6443455334588606,-8.591876600425996,-4.192822705013928,-0.0012276383937892359,0.0009231538729513529,-0.002731246535655604,0.08971900292153903,0.06535136084205022,0.029937731727542265,0.000489395318632471,-0.00028303925657941154,0.0017441022985005459,-0.011855609438878164,0.0035154846563322305,-0.025100324178001843
-0.001745329238474369,0.0,0.0,-1.6349870629185077,-8.575371397947,-4.194522685515249,-0.0012276383937892359,0.0009231538729513529,-0.002731246535655604,0.08971900292153903,0.06535136084205022,0.029937731727542265,0.000489395319339167,-0.00028303925839554163,0.0017441022980636718,-0.0024688758252182272,0.02000577761999897,-0.026781138793185007
-0.001745329238474369,0.0,-0.001745329238474369,-1.6300496046709587,-8.565496481451904,-4.189585227267699,-0.0012276383937892359,0.0009231538729513529,-0.002731246535655604,0.08971900292153903,0.06535136084205022,0.029937731727542265,0.0004893939132921486,-0.0002830370462832792,-1.2269403855344362e-06,0.002496864242219978,0.02986577458836069,-0.021824502026148617
-0.001745329238474369,0.0,0.0,-1.636276669279416,-8.580741481571806,-4.181857564168483,-0.0012276383937892359,0.0009231538729513529,-0.002731246535655604,0.08971900292153903,0.06535136084205022,0.029937731727542265,0.0002261850063495859,-0.0003265203760808755,0.0022885180445896525,0.00040785646478825113,0.027017601094171527,-0.01855945325941537
0.0,0.0,-0.001745329238474369,-1.6510862883580089,-8.615297119402578,-4.171984524788263,-0.0012276383937892359,0.0009231538729513529,-0.002731246535655604,0.08971900292153903,0.06535136084205022,0.029937731727542265,0.0012334820480893987,-0.0004484384886543462,0.002069710337930827,-0.0028621137816609455,0.027254285285033614,-0.021239501403696168
0.0,0.0,-0.003490658476948738,-1.6573238372802734,-8.632708822653594,-4.167826175689697,-0.0012276383937892359,0.0009231538729513529,-0.002731246535655604,0.08971900292153903,0.06535136084205022,0.029937731727542265,0.0012334810052622264,-0.00044843847650358854,0.0003243810997094016,-0.009118419880869803,0.009847261015904562,-0.01708310064726443
0.0,0.0,-0.003490658476948738,-1.6573238372802734,-8.637643707072003,-4.167826175689697,-0.0012276383937892359,0.0009231538729513529,-0.002731246535655604,0.08971900292153903,0.06535136084205022,0.029937731727542265,0.001233481005515667,-0.00044843847570901,0.0003243810993065871,-0.009137169965212502,0.004917053755261574,-0.017085048228644935
0.0,0.0,-0.001745329238474369,-1.6485536801818446,-8.627964478827247,-4.173672923397656,-0.0012276383937892359,0.0009231538729513529,-0.002731246535655604,0.08971900292153903,0.06535136084205022,0.029937731727542265,0.0016929692497220264,-0.0004583284302343223,0.0013136603820092562,-0.009356910636100639,0.010583692028929876,-0.02107743691628056
-0.001745329238474369,0.0,0.0,-1.6337412356488819,-8.608214632809577,-4.183547846406491,-0.0012276383937892359,0.0009231538729513529,-0.002731246535655604,0.08971900292153903,0.06535136084205022,0.029937731727542265,0.0010768677019167697,-0.0004826323672336618,0.0012009346167012702,-0.016594054622654217,0.020457270829907805,-0.026382145763171102
-0.001745329238474369,0.0,0.0,-1.6219204120287152,-8.603423145788469,-4.181456034625456,-0.0012276383937892359,0.0009231538729513529,-0.002731246535655604,0.08971900292153903,0.06535136084205022,0.029937731727542265,0.0010768677019457069,-0.00048263236509237705,0.0012009346174573655,-0.004735101018736297,0.02522537840059744,-0.02425733332584721
-0.001745329238474369,0.0,0.0,-1.6120506431918964,-8.608358030206878,-4.171586265788637,-0.0012276383937892359,0.0009231538729513529,-0.002731246535655604,0.08971900292153903,0.06535136084205022,0.029937731727542265,0.001076867701927961,-0.0004826323668198894,0.0012009346168728658,0.005172779689310298,0.020267125325614397,-0.014354579598503095
0.0,0.0,0.0,-1.6144048479760318,-8.62552410976516,-4.173940470572772,-0.0012276383937892359,0.0009231538729513529,-0.002731246535655604,0.08971900292153903,0.06535136084205022,0.029937731727542265,0.002254150096961989,-0.000604375074499631,0.001909720394969144,0.0038782675174882488,0.010064460450482801,-0.010636400121445124
0.0,0.0,-0.001745329238474369,-1.6242807064644995,-8.650214236189502,-4.18381632906124,-0.0012276383937892359,0.0009231538729513529,-0.002731246535655604,0.08971900292153903,0.06535136084205022,0.029937731727542265,0.0010224160936110863,-0.0008683518600356145,0.0017013013454392687,-0.003761061990734988,0.0005098623442612129,-0.007395501412701081
0.0,0.0,-0.001745329238474369,-1.6247785101519008,-8.649895963182207,-4.193690059545441,-0.0012276383937892359,0.0009231538729513529,-0.002731246535655604,0.08971900292153903,0.06535136084205022,0.029937731727542265,0.0010224160934208754,-0.0008683518602416676,0.001701301345443443,-0.004273978315209293,0.0008333870808844584,-0.017273969579637054
0.0,0.0,-0.003490658476948738,-1.6198429257629823,-8.63508873004031,-4.203561228323278,-0.0012276383937892359,0.0009231538729513529,-0.002731246535655604,0.08971900292153903,0.06535136084205022,0.029937731727542265,0.001022415973157598,-0.000868352310716594,-4.402789309388457e-05,0.0006464962898572829,0.015645870927434535,-0.027149875143210694
0.0,0.001745329238474369,-0.003490658476948738,-1.6244799636263867,-8.61708578617191,-4.203861318903207,-0.0012276383937892359,0.0009231538729513529,-0.002731246535655604,0.08971900292153903,0.06535136084205022,0.029937731727542265,0.0016888513504502603,0.0009425904824610632,-0.0007330199012181705,0.004129524716547701,0.02488096363163207,-0.03109126969952635
0.0,0.001745329238474369,-0.001745329238474369,-1.6343548866352213,-8.59733594015424,-4.19892385739879,-0.0012276383937892359,0.0009231538729513529,-0.002731246535655604,0.08971900292153903,0.06535136084205022,0.029937731727542265,0.002970603170666153,0.0010687813554985039,-0.0003128213200142918,0.00990160389204071,0.02775283412660131,-0.033138417587521354
-0.001745329238474369,0.0,-0.001745329238474369,-1.6409704840120725,-8.600404786176778,-4.190726090068753,-0.0012276383937892359,0.0009231538729513529,-0.002731246535655604,0.08971900292153903,0.06535136084205022,0.029937731727542265,0.00122527107996027,-0.0006765450294152945,-0.0003128246059648011,0.0033170220283387027,0.024659910795655587,-0.02490359804884752
-0.003490658476948738,0.0,0.0,-1.6459051930853223,-8.615208733439957,-4.1808567918933,-0.0012276383937892359,0.0009231538729513529,-0.002731246535655604,0.08971900292153903,0.06535136084205022,0.029937731727542265,-0.000520057617363812,-0.0006765460057016134,0.0014325051733758004,-0.00158668921321588,0.009831899643213557,-0.014997268845924549
-0.001745329238474369,0.0,0.0,-1.6608165530231649,-8.620044708251953,-4.180957645869927,-0.0012276383937892359,0.0009231538729513529,-0.002731246535655604,0.08971900292153903,0.06535136084205022,0.029937731727542265,0.00046989891026679966,-0.0009744573033740712,0.001376764005329861,-0.009671986452940309,0.0002937159195410758,-0.01874770752321608
0.0,0.0,-0.001745329238474369,-1.6805635607070344,-8.620044708251953,-4.185894397790895,-0.0012276383937892359,0.0009231538729513529,-0.002731246535655604,0.08971900292153903,0.06535136084205022,0.029937731727542265,0.0009216624568232735,-0.0014846232205880754,-0.000464019824282708,-0.017753514404544483,-0.0077339070190850555,-0.029975974516580798
0.0,0.0,0.0,-1.6765736867675693,-8.603094625752753,-4.184049425181067,-0.0012276383937892359,0.0009231538729513529,-0.002731246535655604,0.08971900292153903,0.06535136084205022,0.029937731727542265,0.0009216612220202722,-0.0014846225495685056,0.0012813094148405935,-0.01373789924540039,0.009213004783433058,-0.02813520614720841
0.0,0.001745329238474369,0.0,-1.6617592024110661,-8.578403818491914,-4.179111263728901,-0.0012276383937892359,0.0009231538729513529,-0.002731246535655604,0.08971900292153903,0.06535136084205022,0.029937731727542265,0.0009216644071060733,0.0002607066891000588,0.0012813087426313493,0.0011023409619311398,0.03390063944747472,-0.023201251287248106
0.0,0.001745329238474369,0.0,-1.6504049878601217,-8.584849158009305,-4.170714001317612,-0.0012276383937892359,0.0009231538729513529,-0.002731246535655604,0.08971900292153903,0.06535136084205022,0.029937731727542265,0.0010841788397835128,0.000257627779099942,0.002040250643144738,0.0005514240639880836,0.04117856814921246,-0.01385106814284845
0.0,0.001745329238474369,0.0,-1.640529069346257,-8.604600874986241,-4.160838142829145,-0.0012276383937892359,0.0009231538729513529,-0.002731246535655604,0.08971900292153903,0.06535136084205022,0.029937731727542265,0.0013327982211074737,0.0002529175494727966,0.003201306438450661,-0.007815737023188057,0.04242455227511461,-0.002511662167379654
0.0,0.001745329238474369,-0.001745329238474369,-1.637710452079773,-8.627876516564438,-4.172130021297725,-0.0012276383937892359,0.0009231538729513529,-0.002731246535655604,0.08971900292153903,0.06535136084205022,0.029937731727542265,0.0013327994720051606,0.00025291778020850486,0.00145597719951831,-0.005013428650273578,0.01914983995068326,-0.013798766626756033
0.0,0.0,-0.003490658476948738,-1.637710452079773,-8.652550226946767,-4.191868605696471,-0.0012276383937892359,0.0009231538729513529,-0.002731246535655604,0.08971900292153903,0.06535136084205022,0.029937731727542265,0.0013328017544679811,-0.0014924112268916694,-0.0002893522693605559,-0.005029729827569353,-0.005522941638539294,-0.033532579300472536
0.0,0.0,-0.003490658476948738,-1.6269295170461133,-8.641303619378215,-4.200839719687734,-0.0012276383937892359,0.0009231538729513529,-0.002731246535655604,0.08971900292153903,0.06535136084205022,0.029937731727542265,0.0019275215359140718,-0.0015971638594455152,0.0006410573066270869,-0.0036619876181316984,-0.0028691061163072912,-0.03255577922439282
-0.001745329238474369,0.0,-0.005235987715423107,-1.6121171325328614,-8.616615831698443,-4.205777181192151,-0.0012276383937892359,0.0009231538729513529,-0.002731246535655604,0.08971900292153903,0.06535136084205022,0.029937731727542265,0.0009969620370596493,-0.0017406776708483208,0.0001703921340180162,-0.0017611527649325645,0.010043845349547728,-0.023852901167269784
-0.001745329238474369,0.001745329238474369,-0.005235987715423107,-1.6046287305205464,-8.602914430111529,-4.2107145302445295,-0.0012276383937892359,0.0009231538729513529,-0.002731246535655604,0.08971900292153903,0.06535136084205022,0.029937731727542265,0.0009969561606408934,4.651567317575139e-06,0.0001703954611645429,0.00566005039097008,0.0237406362101813,-0.02875361164073013
-0.001745329238474369,0.001745329238474369,-0.005235987715423107,-1.5996922139968668,-8.59304139706417,-4.215651046768209,-0.0012276383937892359,0.0009231538729513529,-0.002731246535655604,0.08971900292153903,0.06535136084205022,0.029937731727542265,0.000996956160703332,4.651566203268245e-06,0.00017039546079272732,0.010529374378629651,0.03360905837585223,-0.03365349321155774
0.0,0.001745329238474369,-0.003490658476948738,-1.6208459505178314,-8.6204411518613,-4.2019513505909565,-0.0012276383937892359,0.0009231538729513529,-0.002731246535655604,0.08971900292153903,0.06535136084205022,0.029937731727542265,0.001885467328833486,0.0007552987836107488,0.0003827782320435691,0.006990578569813226,0.02046644481186161,-0.031677804970745
0.0,0.0,-0.001745329238474369,-1.6504665220547208,-8.65993564731772,-4.182204342907087,-0.0012276383937892359,0.0009231538729513529,-0.002731246535655604,0.08971900292153903,0.06535136084205022,0.029937731727542265,0.0008325790288990797,-6.760973823109763e-05,0.0002443657493811899,-0.0009273546871682765,-0.0015046165719089716,-0.026367952443770135
0.0,0.0,-0.001745329238474369,-1.6535303307007023,-8.657697938255092,-4.177632808685303,-0.0012276383937892359,0.0009231538729513529,-0.002731246535655604,0.08971900292153903,0.06535136084205022,0.029937731727542265,0.0008325790288991587,-6.760973826277896e-05,0.0002443657493289579,-0.003965867032751014,0.0007340083464937542,-0.021808838127975433
0.001745329238474369,0.0,0.0,-1.6485935819681603,-8.642887211969093,-4.177632808685303,-0.0012276383937892359,0.0009231538729513529,-0.002731246535655604,0.08971900292153903,0.06535136084205022,0.029937731727542265,0.002577910145750272,-6.761049870892436e-05,0.001989693109730175,0.000996180371314646,0.015545650515444893,-0.02182125926581989
0.0,-0.001745329238474369,0.0,-1.647517204284668,-8.616503151279439,-4.185351083006545,-0.0012276383937892359,0.0009231538729513529,-0.002731246535655604,0.08971900292153903,0.06535136084205022,0.029937731727542265,0.0009644985326004547,-0.0026261753142501803,0.001695678900657865,0.007245727674826668,0.0182966671401847,-0.023840249487738514
0.0,0.0,0.0,-1.647517204284668,-8.586871376261382,-4.195228341345897,-0.0012276383937892359,0.0009231538729513529,-0.002731246535655604,0.08971900292153903,0.06535136084205022,0.029937731727542265,0.0011100029881130342,-0.001777820609294407,0.0013713877748508857,0.01294673592482665,0.021859170158924954,-0.027423621237094624
0.0,0.0,-0.001745329238474369,-1.6553726104891293,-8.584745879371763,-4.197246074676514,-0.0012276383937892359,0.0009231538729513529,-0.002731246535655604,0.08971900292153903,0.06535136084205022,0.029937731727542265,0.0011100048664456877,-0.0017778208669169168,-0.0003739414641394195,0.005111988809200766,0.0239799194260698,-0.02944015776824377
0.0,0.001745329238474369,0.0,-1.6652414321171871,-8.58968029018579,-4.197246074676514,-0.0012276383937892359,0.0009231538729513529,-0.002731246535655604,0.08971900292153903,0.06535136084205022,0.029937731727542265,0.0011100059748184118,-3.249137120516882e-05,0.0013713875167219948,-0.004736181576473223,0.0190407627181046,-0.029438961376416814
0.0,0.003490658476948738,0.0,-1.6711235482954998,-8.602604043324,-4.189259918637271,-0.0012276383937892359,0.0009231538729513529,-0.002731246535655604,0.08971900292153903,0.06535136084205022,0.029937731727542265,0.0013202894915682038,0.0024242453817096984,0.0015965686045279221,-0.014254662484874033,0.01141432566959962,-0.025702545953017242
0.0,0.003490658476948738,0.0,-1.6760603002164673,-8.617414299086903,-4.179386414795337,-0.0012276383937892359,0.0009231538729513529,-0.002731246535655604,0.08971900292153903,0.06535136084205022,0.029937731727542265,0.0015285490591462469,0.003128812115200279,0.0018195848652888314,-0.022789985933975743,0.0018491984636685665,-0.020036451771653897
0.0,0.0,0.0,-1.6606938388193107,-8.607862296935128,-4.181693612457578,-0.0012276383937892359,0.0009231538729513529,-0.002731246535655604,0.08971900292153903,0.06535136084205022,0.029937731727542265,0.0015285450537723129,-0.00036184636096912,0.0018195835437816487,-0.007397675376136889,0.011394027510439194,-0.022339534062415123
-0.001745329238474369,0.0,-0.001745329238474369,-1.6409504997627355,-8.59305483764251,-4.186629432221784,-0.0012276383937892359,0.0009231538729513529,-0.002731246535655604,0.08971900292153903,0.06535136084205022,0.029937731727542265,-0.00021678541740446713,-0.0003618436981022994,7.425553797645147e-05,0.012371505485572712,0.026194315673841426,-0.02727123966644183
-0.001745329238474369,-0.003490658476948738,-0.001745329238474369,-1.6335835583202147,-8.594751703024695,-4.195693229200025,-0.0012276383937892359,0.0009231538729513529,-0.002731246535655604,0.08971900292153903,0.06535136084205022,0.029937731727542265,-0.0008316066993801966,-0.002618697784274889,0.0010218637534631094,0.01237757423075305,0.0408839680940668,-0.03266721422347627
0.0,-0.003490658476948738,-0.001745329238474369,-1.6286468095876727,-8.599688451757237,-4.205566726665109,-0.0012276383937892359,0.0009231538729513529,-0.002731246535655604,0.08971900292153903,0.06535136084205022,0.029937731727542265,0.00036711014137848696,-0.0015217597767633781,0.0018643473401189247,0.010765201399301743,0.05052579407604192,-0.03929812770664397
0.0,-0.003490658476948738,-0.001745329238474369,-1.636292051163813,-8.62979048396437,-4.198664526575778,-0.0012276383937892359,0.0009231538729513529,-0.002731246535655604,0.08971900292153903,0.06535136084205022,0.029937731727542265,0.0003671101398536535,-0.0015217597771903916,0.0018643473400333263,0.0031312348485376916,0.020436673752815968,-0.032427391992251815
0.0,-0.001745329238474369,-0.003490658476948738,-1.6461646860434582,-8.664344976067605,-4.188791951701571,-0.0012276383937892359,0.0009231538729513529,-0.002731246535655604,0.08971900292153903,0.06535136084205022,0.029937731727542265,0.00036710185955427926,0.0002235675715566092,0.00011901621127090018,-0.006730127399270119,-0.014104908955849486,-0.02258627564213079
0.0,0.0,-0.003490658476948738,-1.643256326633943,-8.647774283267058,-4.183178615824721,-0.0012276383937892359,0.0009231538729513529,-0.002731246535655604,0.08971900292153903,0.06535136084205022,0.029937731727542265,8.841504894700286e-05,0.0006885144831470681,-0.0010226945967638742,-0.005912443219330943,-0.006995199946120151,-0.02330890581400382
0.0,0.0,-0.001745329238474369,-1.6383192824903572,-8.623088882507405,-4.178241631695044,-0.0012276383937892359,0.0009231538729513529,-0.002731246535655604,0.08971900292153903,0.06535136084205022,0.029937731727542265,-0.00013381259756450124,-0.0003324764067450925,-0.00018777620660579629,-0.002628778366486475,0.010146455781670963,-0.023431151001412628
0.0,0.0,0.0,-1.6333827036766393,-8.611389211445687,-4.181960557088437,-0.0012276383937892359,0.0009231538729513529,-0.002731246535655604,0.08971900292153903,0.06535136084205022,0.029937731727542265,-0.00013381130030058828,-0.00033247341682291935,0.0015575530315949187,0.0023397221454711722,0.021855370548480364,-0.027182452595524393
0.0,0.0,0.0,-1.6284475930030142,-8.601518990098436,-4.1868956677620615,-0.0012276383937892359,0.0009231538729513529,-0.002731246535655604,0.08971900292153903,0.06535136084205022,0.029937731727542265,-0.0001338112999892317,-0.00033247341600532834,0.0015575530319136069,0.007306745426134463,0.03173483276909019,-0.03214993034945913
0.0,0.0,0.0,-1.6366897702575192,-8.626789562783914,-4.183046492794544,-0.0012276383937892359,0.0009231538729513529,-0.002731246535655604,0.08971900292153903,0.06535136084205022,0.029937731727542265,0.000538023592785074,-0.0012583711887100605,0.0015068652085805994,0.004750060480372303,0.021940563088005273,-0.029910539524339037
0.0,0.0,0.0,-1.6465642629067387,-8.656413340815226,-4.178109276478299,-0.0012276383937892359,0.0009231538729513529,-0.002731246535655604,0.08971900292153903,0.06535136084205022,0.029937731727542265,0.0010176086728705541,-0.0019193195983693634,0.0014706827273119004,-0.0010652935149162831,0.0033597823551366392,-0.02611303122097813
-0.001745329238474369,0.001745329238474369,0.0,-1.647517204284668,-8.654811274874591,-4.177632808685303,-0.0012276383937892359,0.0009231538729513529,-0.002731246535655604,0.08971900292153903,0.06535136084205022,0.029937731727542265,-0.0007277177956842913,-0.0001739875914413775,0.0014706800779746361,-0.002001035471901112,0.004958553107019328,-0.025636825021224587
-0.001745329238474369,0.001745329238474369,0.0,-1.647517204284668,-8.649875690485674,-4.177632808685303,-0.0012276383937892359,0.0009231538729513529,-0.002731246535655604,0.08971900292153903,0.06535136084205022,0.029937731727542265,-0.0007277177966997202,-0.0001739875906981719,0.0014706800776090189,-0.001983842576917778,0.00989084350091845,-0.02563708647051566
-0.001745329238474369,0.003490658476948738,-0.001745329238474369,-1.638462858434706,-8.617775102794605,-4.18668709950335,-0.0012276383937892359,0.0009231538729513529,-0.002731246535655604,0.08971900292153903,0.06535136084205022,0.029937731727542265,-0.0015467337135460213,0.0014779835150318683,0.0008527460146977865,0.003176996629597888,0.006342049668199782,-0.022012852959455098
0.0,0.003490658476948738,-0.003490658476948738,-1.628589300958576,-8.58321738157844,-4.196560596968434,-0.0012276383937892359,0.0009231538729513529,-0.002731246535655604,0.08971900292153903,0.06535136084205022,0.029937731727542265,-0.0003236605572092351,0.0014184518733288652,-0.00017368519151671034,0.010548227645415457,0.01817996148427273,-0.023819292262274656
0.0,0.001745329238474369,-0.003490658476948738,-1.6324980774905191,-8.576223917863178,-4.201840333082865,-0.0012276383937892359,0.0009231538729513529,-0.002731246535655604,0.08971900292153903,0.06535136084205022,0.029937731727542265,-0.0003236592705340687,-0.0003268773650976448,-0.00017368178339840915,0.0066145144940563064,0.025192387279705245,-0.029127873942137596
0.0,0.001745329238474369,-0.001745329238474369,-1.6374345908483718,-8.571287404505327,-4.206776846440718,-0.0012276383937892359,0.0009231538729513529,-0.002731246535655604,0.08971900292153903,0.06535136084205022,0.029937731727542265,-0.0003236617938697104,-0.00032687395845026917,0.0015716474549468183,0.0016530645722672049,0.030147862568306743,-0.03409323301161167
0.0,0.0,-0.001745329238474369,-1.6610056452586341,-8.603624734435236,-4.202393680363361,-0.0012276383937892359,0.0009231538729513529,-0.002731246535655604,0.08971900292153903,0.06535136084205022,0.029937731727542265,-0.0005820039538390376,-0.0024347019289195386,0.0012842957809445104,0.0010673242333708304,0.01845640810508018,-0.042325253430691455
0.0,0.001745329238474369,-0.001745329238474369,-1.6856870952919925,-8.638178680474482,-4.197457402357754,-0.0012276383937892359,0.0009231538729513529,-0.002731246535655604,0.08971900292153903,0.06535136084205022,0.029937731727542265,-0.0007287079527603074,-0.0008952233030627485,0.001121112903989118,-0.010569875556790053,-0.004363859900907604,-0.044569231987782475
0.0,0.001745329238474369,-0.001745329238474369,-1.6820164986153383,-8.625476261287908,-4.183064361721259,-0.0012276383937892359,0.0009231538729513529,-0.002731246535655604,0.08971900292153903,0.06535136084205022,0.029937731727542265,-0.0007287079512173718,-0.0008952233048152194,0.0011211129036043483,-0.006920325961078223,0.008359762369250989,-0.030211408108260996
0.0,0.003490658476948738,-0.001745329238474369,-1.677080678851133,-8.610668801995292,-4.168256902428642,-0.0012276383937892359,0.0009231538729513529,-0.002731246535655604,0.08971900292153903,0.06535136084205022,0.029937731727542265,-0.0007287082494522671,0.0008501059351525707,0.0011211086060858816,-0.002005539181240814,0.023188410509934358,-0.015439142423416107
0.0,0.003490658476948738,-0.001745329238474369,-1.6673516162785926,-8.595859844767011,-4.172618919186143,-0.0012276383937892359,0.0009231538729513529,-0.002731246535655604,0.08971900292153903,0.06535136084205022,0.029937731727542265,-0.0007947020325097178,0.001544543174631818,0.0015293085652805022,-0.007456860800187204,0.03179106067174706,-0.02647857561433794
0.0,0.003490658476948738,-0.001745329238474369,-1.6574771901109078,-8.581048205515483,-4.177556132269985,-0.0012276383937892359,0.0009231538729513529,-0.002731246535655604,0.08971900292153903,0.06535136084205022,0.029937731727542265,-0.0008279249186690051,0.001894135086301064,0.0017348023738717562,-0.00523653721999337,0.043491296694603526,-0.034799344712377535
0.0,0.001745329238474369,-0.001745329238474369,-1.6573238372802734,-8.600261217443842,-4.1727720483917246,-0.0012276383937892359,0.0009231538729513529,-0.002731246535655604,0.08971900292153903,0.06535136084205022,0.029937731727542265,-0.0008279232738578597,0.00014880584861224112,0.001734806889124084,-0.005106638754442759,0.024303159236397375,-0.03005727237827793
0.0,0.0,-0.001745329238474369,-1.6573238372802734,-8.620014778613818,-4.167833658099232,-0.0012276383937892359,0.0009231538729513529,-0.002731246535655604,0.08971900292153903,0.06535136084205022,0.029937731727542265,-0.0008279216284857946,-0.0015965233920244661,0.0017348114035106877,-0.005130097538155138,0.004574476986870638,-0.025160901756695234
0.0,0.0,-0.005235987715423107,-1.647468043410507,-8.634828788426624,-4.167826175689697,-0.0012276383937892359,0.0009231538729513529,-0.002731246535655604,0.08971900292153903,0.06535136084205022,0.029937731727542265,0.00011350247404511702,-0.0009265263438794029,-0.002156620726042738,-0.021891804414444018,0.004897179202844475,-0.021608171786732727
0.0,0.0,-0.003490658476948738,-1.6374729422079366,-8.649287422734876,-4.167885553157656,-0.0012276383937892359,0.0009231538729513529,-0.002731246535655604,0.08971900292153903,0.06535136084205022,0.029937731727542265,0.0005316834987292343,-0.0006289073014795439,-0.0005893160867698786,-0.02371748847829335,-0.0028355407647345687,-0.020098513643263625
0.0,0.0,-0.001745329238474369,-1.6177259600290381,-8.63447670601264,-4.17282229870238,-0.0012276383937892359,0.0009231538729513529,-0.002731246535655604,0.08971900292153903,0.06535136084205022,0.029937731727542265,0.0005316841453318551,-0.0006289057725165703,0.0011560131517295708,-0.003971142106462332,0.011983224925238812,-0.025051784477473665
-0.001745329238474369,0.0,0.0,-1.598736439377196,-8.619792188972108,-4.17801158760507,-0.0012276383937892359,0.0009231538729513529,-0.002731246535655604,0.08971900292153903,0.06535136084205022,0.029937731727542265,-0.001213644447166285,-0.00062890461817992,0.002901343036258844,0.015017742722622992,0.026675790904276426,-0.030257598683282146
-0.001745329238474369,0.001745329238474369,0.0,-1.6086080727059469,-8.609920555643358,-4.192819037598197,-0.0012276383937892359,0.0009231538729513529,-0.002731246535655604,0.08971900292153903,0.06535136084205022,0.029937731727542265,-0.0009543044734620019,0.0016206761321502627,0.002413392059968577,0.010452124142735912,0.0274203434877555,-0.0216535539150307
-0.001745329238474369,0.001745329238474369,0.0,-1.6182903165748137,-8.601010833719496,-4.207245838158371,-0.0012276383937892359,0.0009231538729513529,-0.002731246535655604,0.08971900292153903,0.06535136084205022,0.029937731727542265,-0.0008533798719406845,0.0018169101631589197,0.0022235017748552994,0.0028504369887355787,0.03277830446574323,-0.026976125457709905
0.0,0.0,-0.001745329238474369,-1.6232284713806693,-8.615825298137064,-4.212183992964226,-0.0012276383937892359,0.0009231538729513529,-0.002731246535655604,0.08971900292153903,0.06535136084205022,0.029937731727542265,0.000891946065297957,7.15790716221073e-05,0.0004781710886780035,-0.0020660530729382782,0.017965211311088476,-0.03192591732698468
-0.001745329238474369,0.0,-0.001745329238474369,-1.6284274411146917,-8.629327722399585,-4.216073912395765,-0.0012276383937892359,0.0009231538729513529,-0.002731246535655604,0.08971900292153903,0.06535136084205022,0.029937731727542265,-0.0008533831733798274,7.158018679789568e-05,0.00047817327348265084,-0.007243362193334111,0.004464158014247258,-0.035827471673356474
-0.001745329238474369,-0.001745329238474369,0.0,-1.6382977163900772,-8.619457507115298,-4.201268589469334,-0.0012276383937892359,0.0009231538729513529,-0.002731246535655604,0.08971900292153903,0.06535136084205022,0.029937731727542265,-0.0003130057956566205,-0.0014367082051165631,0.0015651478939625828,0.0020501902225540454,0.00302337510978087,-0.028817196800132897
-0.003490658476948738,0.0,0.0,-1.6478440764635782,-8.609257458719616,-4.188093186038729,-0.0012276383937892359,0.0009231538729513529,-0.002731246535655604,0.08971900292153903,0.06535136084205022,0.029937731727542265,-0.0018756273582886623,0.0003887687234298926,0.001342557005347848,-0.0009855573789702083,0.009391373826416714,-0.01827432848493283
-0.003490658476948738,0.0,0.0,-1.6527822312694336,-8.59444299430205,-4.197969495650439,-0.0012276383937892359,0.0009231538729513529,-0.002731246535655604,0.08971900292153903,0.06535136084205022,0.029937731727542265,-0.0018756273582536192,0.00038876872344194264,0.001342557005433037,-0.005879478337531606,0.024195670393519872,-0.028147904348510923
-0.001745329238474369,0.0,0.0,-1.6573238372802737,-8.58279811003843,-4.206260734164561,-0.0012276383937892359,0.0009231538729513529,-0.002731246535655604,0.08971900292153903,0.06535136084205022,0.029937731727542265,-0.0001302981211664802,0.00038876567248684617,0.001342554122830692,-0.01037685052760056,0.03583038664935355,-0.03643640927052253
0.0,0.0,0.0,-1.6573238372802734,-8.60747364824915,-4.196390518880272,-0.0012276383937892359,0.0009231538729513529,-0.002731246535655604,0.08971900292153903,0.06535136084205022,0.029937731727542265,-0.00021437630357389002,-0.0013290445177338627,0.002848708512650587,-0.014036894886737096,0.029151040752383686,-0.03333786300842077
0.0,0.0,0.0,-1.6568627777659846,-8.629390281733269,-4.187439441680908,-0.0012276383937892359,0.0009231538729513529,-0.002731246535655604,0.08971900292153903,0.06535136084205022,0.029937731727542265,-0.0007458481528971055,-0.0018280938581214973,0.00328627158158426,-0.014658837704858941,0.012481263866226278,-0.026384695476680826
0.0,0.001745329238474369,-0.001745329238474369,-1.651924390818312,-8.624451894785597,-4.187439441680908,-0.0012276383937892359,0.0009231538729513529,-0.002731246535655604,0.08971900292153903,0.06535136084205022,0.029937731727542265,-0.0007458473836609352,-8.276895658701242e-05,0.0015409380070325611,-0.00974216876335234,0.017442896590181726,-0.026424016358913706
0.0,0.003490658476948738,-0.001745329238474369,-1.646456869672856,-8.619514544168382,-4.187439441680908,-0.0012276383937892359,0.0009231538729513529,-0.002731246535655604,0.08971900292153903,0.06535136084205022,0.029937731727542265,-0.0007458486021363072,0.001662560280858317,0.0015409336728054515,-0.004296361454101175,0.02240348835581091,-0.026463329959668873
0.0,0.005235987715423107,-0.005235987715423107,-1.6365865943974707,-8.614579436526236,-4.187439441680908,-0.0012276383937892359,0.0009231538729513529,-0.002731246535655604,0.08971900292153903,0.06535136084205022,0.029937731727542265,-0.0005273868263693165,0.0026060511671537286,-5.989586455604686e-05,-0.007523866213932711,0.030581421830028738,-0.0308714659786431
0.0,0.005235987715423107,-0.005235987715423107,-1.6284990531376367,-8.611428543363287,-4.1868442076274395,-0.0012276383937892359,0.0009231538729513529,-0.002731246535655604,0.08971900292153903,0.06535136084205022,0.029937731727542265,-0.00047363609311342863,0.0024087647872831383,0.0004050919851760991,-0.002725250154883908,0.03455353568913824,-0.03138228615439041
0.0,0.005235987715423107,-0.005235987715423107,-1.6334372046212864,-8.621304846330585,-4.18190605614379,-0.0012276383937892359,0.0009231538729513529,-0.002731246535655604,0.08971900292153903,0.06535136084205022,0.029937731727542265,-0.00047363608944322224,0.002408764787651745,0.0004050919875515521,-0.007747301970815498,0.02470773322072549,-0.02647322962403995
0.0,0.001745329238474369,-0.003490658476948738,-1.637710452079773,-8.631179153600964,-4.177632808685303,-0.0012276383937892359,0.0009231538729513529,-0.002731246535655604,0.08971900292153903,0.06535136084205022,0.029937731727542265,-0.0004736274878518323,-0.0010818899529275528,0.002150428699955989,-0.012104418071107143,0.014863914159193418,-0.022229066632773468
-0.001745329238474369,0.0,-0.001745329238474369,-1.637710452079773,-8.64104891373491,-4.177632808685303,-0.0012276383937892359,0.0009231538729513529,-0.002731246535655604,0.08971900292153903,0.06535136084205022,0.029937731727542265,-9.269858655428156e-05,0.0008240391654285127,0.0027754070157495333,-0.023942862703132943,0.0009362800071259146,-0.02408479727851421
-0.001745329238474369,0.0,-0.003490658476948738,-1.6355221603513872,-8.645088906520733,-4.177632808685303,-0.0012276383937892359,0.0009231538729513529,-0.002731246535655604,0.08971900292153903,0.06535136084205022,0.029937731727542265,0.00034239162773837695,0.0015712033597131778,0.0008008187781601734,-0.024180753574766324,-0.003937128114117906,-0.024456754097367583
-0.001745329238474369,-0.001745329238474369,-0.003490658476948738,-1.6207105114026534,-8.615465128489422,-4.177632808685303,-0.0012276383937892359,0.0009231538729513529,-0.002731246535655604,0.08971900292153903,0.06535136084205022,0.029937731727542265,0.00034239505493269083,-0.00017412587872188794,0.0008008168889442961,-0.009377034517902973,0.02568427396371864,-0.02444858424934789
-0.003490658476948738,-0.001745329238474369,-0.001745329238474369,-1.6082905530929565,-8.593013238877308,-4.1784289518893605,-0.0012276383937892359,0.0009231538729513529,-0.002731246535655604,0.08971900292153903,0.06535136084205022,0.029937731727542265,-0.0014029287023564318,-0.00017413119648921417,0.0025461516074091707,0.0030349954625562806,0.04813378802356662,-0.02523655910821562
-0.003490658476948738,0.0,-0.001745329238474369,-1.6082905530929565,-8.607823465949854,-4.183365694246875,-0.0012276383937892359,0.0009231538729513529,-0.002731246535655604,0.08971900292153903,0.06535136084205022,0.029937731727542265,-0.0010790250536460901,-0.0003847574808193902,0.00039287733642424266,0.01711036761968067,0.044503331596817776,-0.024348665892689407
-0.003490658476948738,0.0,0.0,-1.612606566949994,-8.622634394214781,-4.187439441680908,-0.0012276383937892359,0.0009231538729513529,-0.002731246535655604,0.08971900292153903,0.06535136084205022,0.029937731727542265,-0.0010254039843798255,-0.0007085576651175638,0.001781742725132121,0.015144469459239277,0.0315284921305447,-0.027435862134717683
-0.001745329238474369,0.001745329238474369,0.0,-1.637296223683642,-8.637448632442016,-4.187439441680908,-0.0012276383937892359,0.0009231538729513529,-0.002731246535655604,0.08971900292153903,0.06535136084205022,0.029937731727542265,0.0007199273403553899,0.0010367694866531994,0.0017817449727709973,-0.009522081125398893,0.016697094102203533,-0.027409623043292846
0.0,0.001745329238474369,0.0,-1.6563910522690104,-8.645734330156664,-4.186506656669645,-0.0012276383937892359,0.0009231538729513529,-0.002731246535655604,0.08971900292153903,0.06535136084205022,0.029937731727542265,0.002465256577816418,0.001036767403602758,0.001781744500755445,-0.02859379921202696,0.008394233199159993,-0.026450594036574866
0.0,0.0,0.0,-1.6514559415953851,-8.625993407533088,-4.18157154599602,-0.0012276383937892359,0.0009231538729513529,-0.002731246535655604,0.08971900292153903,0.06535136084205022,0.029937731727542265,0.0025493123883159148,-0.0005831291195101167,0.0027396520212021945,-0.013831305925909592,-0.0053844690436477645,-0.020961102073111023
0.0,0.0,0.0,-1.647517204284668,-8.606241169766125,-4.178632035057858,-0.0012276383937892359,0.0009231538729513529,-0.002731246535655604,0.08971900292153903,0.06535136084205022,0.029937731727542265,0.0025601589110084808,-0.000566944025247556,0.002863256668330594,-0.008624061620818422,0.010030844299753329,-0.017926029103312594
-0.001745329238474369,0.0,-0.001745329238474369,-1.647517204284668,-8.586490434166336,-4.183569718957806,-0.0012276383937892359,0.0009231538729513529,-0.002731246535655604,0.08971900292153903,0.06535136084205022,0.029937731727542265,0.0008148288896978672,-0.00056694138717133,0.0011179282127141176,-0.008623188753707094,0.029768095265089164,-0.02283613747914715
-0.003490658476948738,0.001745329238474369,-0.001745329238474369,-1.646450683745936,-8.575277573571052,-4.189572456829471,-0.0012276383937892359,0.0009231538729513529,-0.002731246535655604,0.08971900292153903,0.06535136084205022,0.029937731727542265,-0.0009305006387603243,0.0011783875610645166,0.0011179319226075543,-0.007555795483971992,0.040967473687637875,-0.028811305095345636
-0.005235987715423107,0.001745329238474369,-0.001745329238474369,-1.6415131752457122,-8.595027367493735,-4.199447353790813,-0.0012276383937892359,0.0009231538729513529,-0.002731246535655604,0.08971900292153903,0.06535136084205022,0.029937731727542265,-0.0020306246574059213,0.0012504005245349943,0.0010489742691573145,-0.0014841212577931479,0.04166197907371314,-0.017892667550469924
-0.003490658476948738,0.001745329238474369,-0.001745329238474369,-1.6399806193709403,-8.612508228749538,-4.2081877844187145,-0.0012276383937892359,0.0009231538729513529,-0.002731246535655604,0.08971900292153903,0.06535136084205022,0.029937731727542265,-0.0002243121957627219,0.0012572071875292,0.0010424555132123082,0.00015871202251363766,0.026094030090671645,-0.02462887133646718
-0.003490658476948738,0.0,0.0,-1.6498541640969395,-8.62238171346457,-4.213124526776229,-0.0012276383937892359,0.0009231538729513529,-0.002731246535655604,0.08971900292153903,0.06535136084205022,0.029937731727542265,-0.00022431111616007073,-0.0004881265280905673,0.0027877802728856955,-0.009711456594629332,0.016199164227140097,-0.0295228323176973
-0.001745329238474369,0.0,0.0,-1.6561231395815648,-8.626249248151433,-4.213257247571599,-0.0012276383937892359,0.0009231538729513529,-0.002731246535655604,0.08971900292153903,0.06535136084205022,0.029937731727542265,0.0015210181225299036,-0.0004881264052363197,0.0027877793168782456,-0.01597705687964242,0.01231025424695009,-0.02961278400398159
-0.001745329238474369,0.0,-0.001745329238474369,-1.6511856911008937,-8.61143690270942,-4.1984449021295855,-0.0012276383937892359,0.0009231538729513529,-0.002731246535655604,0.08971900292153903,0.06535136084205022,0.029937731727542265,-0.0016163705891706643,-0.0007839802256620494,0.0015716737120629965,-0.008747371334901125,0.015242080562785655,-0.03388901746509681
0.0,0.0,-0.001745329238474369,-1.6487866335105226,-8.599162013034888,-4.187439441680908,-0.0012276383937892359,0.0009231538729513529,-0.002731246535655604,0.08971900292153903,0.06535136084205022,0.029937731727542265,-6.602379653443772e-05,-0.0008023659748675292,0.0016045637118427105,-0.006217415918267619,0.026794104747640622,-0.024097186165060118
0.0,0.001745329238474369,-0.001745329238474369,-1.6537245495526025,-8.594224096992807,-4.187439441680908,-0.0012276383937892359,0.0009231538729513529,-0.002731246535655604,0.08971900292153903,0.06535136084205022,0.029937731727542265,-6.60251557515414e-05,0.0009429632627411564,0.0016045608698364209,-0.011167595214845363,0.03174837817653459,-0.024126023784329403
0.0,0.001745329238474369,-0.001745329238474369,-1.6546503048931167,-8.599982245743439,-4.186102683612136,-0.0012276383937892359,0.0009231538729513529,-0.002731246535655604,0.08971900292153903,0.06535136084205022,0.029937731727542265,-6.602515586391363e-05,0.0009429632634176833,0.0016045608694490827,-0.012105609199356463,0.02600658050434752,-0.02281809246205257
0.0,0.001745329238474369,-0.001745329238474369,-1.6447753479122218,-8.634544865264559,-4.1811652351314645,-0.0012276383937892359,0.0009231538729513529,-0.002731246535655604,0.08971900292153903,0.06535136084205022,0.029937731727542265,0.00039513083242787586,0.0024829062794837343,0.002179463677067165,-0.021551432304228665,0.01161420070279608,-0.021078460306178493
0.0,0.0,-0.001745329238474369,-1.6363050294917019,-8.652244944293962,-4.179038231273374,-0.0012276383937892359,0.0009231538729513529,-0.002731246535655604,0.08971900292153903,0.06535136084205022,0.029937731727542265,0.0004095896190733389,0.0007858506857675148,0.0021974872492765635,-0.013695052573754406,-0.005440172330127538,-0.01907621934871032
0.0,-0.001745329238474369,-0.001745329238474369,-1.6313673488687417,-8.627556061000165,-4.183975911896334,-0.0012276383937892359,0.0009231538729513529,-0.002731246535655604,0.08971900292153903,0.06535136084205022,0.029937731727542265,0.00040959228129384045,-0.0009594785525334033,0.00219748904683812,-0.00876592006453249,0.0192625650417302,-0.024039213742329653
-0.001745329238474369,-0.001745329238474369,-0.003490658476948738,-1.6264298790596112,-8.607290195207236,-4.187439441680908,-0.0012276383937892359,0.0009231538729513529,-0.002731246535655604,0.08971900292153903,0.06535136084205022,0.029937731727542265,-0.0013357407131945746,-0.0009594830117259014,0.0004521635621837708,-0.003836998520335373,0.03954228483450485,-0.027528057289314817
-0.001745329238474369,-0.001745329238474369,-0.003490658476948738,-1.6214947744483705,-8.597419985984754,-4.187439441680908,-0.0012276383937892359,0.0009231538729513529,-0.002731246535655604,0.08971900292153903,0.06535136084205022,0.029937731727542265,0.0023322309445579,-0.0022790872215929137,0.0008636209849111027,-0.0009818250356857863,0.04231434327590395,-0.01245618484500858
-0.003490658476948738,-0.001745329238474369,-0.003490658476948738,-1.6211763987183145,-8.598322840839518,-4.190518654310661,-0.0012276383937892359,0.0009231538729513529,-0.002731246535655604,0.08971900292153903,0.06535136084205022,0.029937731727542265,0.0005952562083192198,-0.0022820964231821997,0.0008645589908181101,-0.000699619552002831,0.04137210403928976,-0.015440220868506565
-0.003490658476948738,0.0,-0.001745329238474369,-1.631051759964235,-8.623011243954318,-4.200394015556581,-0.0012276383937892359,0.0009231538729513529,-0.002731246535655604,0.08971900292153903,0.06535136084205022,0.029937731727542265,0.0005952534889793805,-0.0005367734652516344,0.002609894509848582,-0.010606485284279541,0.01666043047175633,-0.02525459624147544
-0.003490658476948738,0.001745329238474369,-0.003490658476948738,-1.6344937829493908,-8.639657974243164,-4.20866104223731,-0.0012276383937892359,0.0009231538729513529,-0.002731246535655604,0.08971900292153903,0.06535136084205022,0.029937731727542265,0.0005545347520873613,0.0012041788950873666,0.000810563263817591,-0.0137906557632894,-0.0003674122660234416,-0.033330465361936235
-0.003490658476948738,0.001745329238474369,-0.003490658476948738,-1.6246184217034703,-8.639657974243164,-4.2135987228602705,-0.0012276383937892359,0.0009231538729513529,-0.002731246535655604,0.08971900292153903,0.06535136084205022,0.029937731727542265,-0.0009568931408833326,0.0010414681340105488,-0.0011943724081227816,0.006796119979985026,-0.013674530351157269,-0.03337581172595829
-0.001745329238474369,0.0,-0.001745329238474369,-1.623124187052321,-8.629604013054248,-4.213508020271419,-0.0012276383937892359,0.0009231538729513529,-0.002731246535655604,0.08971900292153903,0.06535136084205022,0.029937731727542265,0.0007884356237071134,-0.0007038649296291738,0.0005509534789302144,0.008302195893090215,-0.0036362973881106336,-0.03325748113946487
-0.001745329238474369,0.0,0.0,-1.6379372889435762,-8.599977929316488,-4.203632659025499,-0.0012276383937892359,0.0009231538729513529,-0.002731246535655604,0.08971900292153903,0.06535136084205022,0.029937731727542265,0.0007884361056181883,-0.0007038677996524289,0.0022962827173170757,-0.0064990624953036235,0.02597405504082704,-0.023354486721108167
-0.001745329238474369,0.0,0.0,-1.651005315987476,-8.582562232120935,-4.197246074676514,-0.0012276383937892359,0.0009231538729513529,-0.002731246535655604,0.08971900292153903,0.06535136084205022,0.029937731727542265,0.0007252200081981384,-0.0006346542418311002,0.0022223618409834764,-0.0177464649680488,0.043582598980066896,-0.01736792991614145
-0.001745329238474369,0.0,0.0,-1.6608750547295137,-8.587497101491955,-4.197246074676514,-0.0012276383937892359,0.0009231538729513529,-0.002731246535655604,0.08971900292153903,0.06535136084205022,0.029937731727542265,-0.00038034176436327246,0.000575797826842092,0.0009295902709731324,0.004031063448932826,0.04228007900656714,-0.02482119552486953
-0.001745329238474369,0.0,0.001745329238474369,-1.668940227919185,-8.597863839838361,-4.197246074676514,-0.0012276383937892359,0.0009231538729513529,-0.002731246535655604,0.08971900292153903,0.06535136084205022,0.029937731727542265,-0.0003803384709514162,0.0005757975250314873,0.0026749195095164754,-0.00397879857561802,0.03190392655572184,-0.024824811369937198
0.0,-0.001745329238474369,0.0,-1.6738776731454716,-8.617613620743509,-4.197246074676514,-0.0012276383937892359,0.0009231538729513529,-0.002731246535655604,0.08971900292153903,0.06535136084205022,0.029937731727542265,0.0013649835148993646,-0.0011695353707618986,0.0009295866751900248,-0.008860937929947434,0.012144732187796254,-0.024828427084659238
0.0,-0.001745329238474369,0.0,-1.6769371032714844,-8.627972769072286,-4.197246074676514,-0.0012276383937892359,0.0009231538729513529,-0.002731246535655604,0.08971900292153903,0.06535136084205022,0.029937731727542265,0.001247678294428372,-0.0012134381387223054,0.0011296903355201057,-0.012883351016467207,0.0025364729412334225,-0.02537488649799787
0.0,-0.001745329238474369,0.0,-1.6769371032714844,-8.623035088449326,-4.197246074676514,-0.0012276383937892359,0.0009231538729513529,-0.002731246535655604,0.08971900292153903,0.06535136084205022,0.029937731727542265,-5.247385478619485e-05,-0.0017000329608786988,0.00334754642820314,-0.024119163956902213,0.01589375913813825,-0.03139744638597495
0.0,0.0,0.0,-1.6711008010987898,-8.620044708251953,-4.195300640618949,-0.0012276383937892359,0.0009231538729513529,-0.002731246535655604,0.08971900292153903,0.06535136084205022,0.029937731727542265,-5.2475207498515306e-05,4.529627902602182e-05,0.0033475436161029925,-0.018286136832065755,0.018900362837364557,-0.02948430846101258
0.0,0.0,-0.001745329238474369,-1.6562912895068087,-8.620044708251953,-4.190364136754955,-0.0012276383937892359,0.0009231538729513529,-0.002731246535655604,0.08971900292153903,0.06535136084205022,0.029937731727542265,-5.2477335264370423e-05,4.529346648601075e-05,0.0016022143776129084,-0.0034799013224736048,0.01891659083984218,-0.024580109950712248
0.0,0.0,-0.003490658476948738,-1.647517204284668,-8.622057272252816,-4.1854268776800465,-0.0012276383937892359,0.0009231538729513529,-0.002731246535655604,0.08971900292153903,0.06535136084205022,0.029937731727542265,-7.019998452211236e-06,-0.0002481546483908295,5.461281057853355e-05,0.001822558645420268,0.016281240987967807,-0.019871314187274506
0.0,0.0,-0.005235987715423107,-1.647517204284668,-8.626992612126706,-4.180491537806155,-0.0012276383937892359,0.0009231538729513529,-0.002731246535655604,0.08971900292153903,0.06535136084205022,0.029937731727542265,0.0003580631316060827,-0.002604752941869195,-0.00010280257086057033,-0.02604173822487909,0.0062306391400627865,-0.016541192926695498
0.0,0.001745329238474369,-0.005235987715423107,-1.6412783370171458,-8.625692113255717,-4.1817920366771455,-0.0012276383937892359,0.0009231538729513529,-0.002731246535655604,0.08971900292153903,0.06535136084205022,0.029937731727542265,0.000358057852312835,-0.0008594237036305207,-0.00010280448223573324,-0.019873250259824036,0.007550673418907768,-0.01785349475137781
0.0,0.001745329238474369,-0.003490658476948738,-1.6264652351258908,-8.615816752009795,-4.191667397923066,-0.0012276383937892359,0.0009231538729513529,-0.002731246535655604,0.08971900292153903,0.06535136084205022,0.029937731727542265,0.0003580541573200154,-0.0008594217928428116,0.0016425247562861583,-0.005130514413573803,0.01744556592239288,-0.027740657056955147
0.0,0.003490658476948738,-0.001745329238474369,-1.613799976263725,-8.60808947034393,-4.195097469764096,-0.0012276383937892359,0.0009231538729513529,-0.002731246535655604,0.08971900292153903,0.06535136084205022,0.029937731727542265,0.0005428879180086113,0.0007044513514727861,0.0028552628110609744,0.006990770177806099,0.026572450941230476,-0.03193722597192732
0.0,0.005235987715423107,0.0,-1.6039292965159435,-8.603154130470038,-4.190162129890204,-0.0012276383937892359,0.0009231538729513529,-0.002731246535655604,0.08971900292153903,0.06535136084205022,0.029937731727542265,0.001686554204338217,0.001327062076645012,0.0013053592008491991,0.0138705192789155,0.04006183302944009,-0.03167834336729922
0.0,0.005235987715423107,0.0,-1.607344057129175,-8.611506828957918,-4.185224407422952,-0.0012276383937892359,0.0009231538729513529,-0.002731246535655604,0.08971900292153903,0.06535136084205022,0.029937731727542265,0.0016865542048508887,0.0013270620774874157,0.0013053591995403077,0.010455536543619871,0.03169816208215655,-0.02671771648221357
-0.001745329238474369,0.003490658476948738,0.0,-1.627089131447194,-8.636188651897122,-4.180288138843448,-0.0012276383937892359,0.0009231538729513529,-0.002731246535655604,0.08971900292153903,0.06535136084205022,0.029937731727542265,-5.8778167859548566e-05,-0.00041826402805826275,0.001305351630317861,-0.009289760065977105,0.007005368735404388,-0.021758547835951082
0.0,0.001745329238474369,0.0,-1.637710452079773,-8.647182921795878,-4.1799152258422705,-0.0012276383937892359,0.0009231538729513529,-0.002731246535655604,0.08971900292153903,0.06535136084205022,0.029937731727542265,0.0015538796644041432,-0.0015983740418028293,0.0013246502932327325,-0.017233879427195866,-0.005120680861238765,-0.02056210859953883
0.0,0.0,0.0,-1.637710452079773,-8.64224686666266,-4.184850801001242,-0.0012276383937892359,0.0009231538729513529,-0.002731246535655604,0.08971900292153903,0.06535136084205022,0.029937731727542265,0.0008952621648916081,-0.0005377084566601796,0.0014204290274386262,-0.003936797971870533,-0.00575831371257081,-0.021505425291435547
0.0,0.0,0.0,-1.6353608245145388,-8.632609091547462,-4.187439441680908,-0.0012276383937892359,0.0009231538729513529,-0.002731246535655604,0.08971900292153903,0.06535136084205022,0.029937731727542265,0.0008952621649992795,-0.0005377084566462695,0.001420429027493056,-0.0015543735743359212,0.0038772818143414504,-0.024103022974640557
0.0,0.0,0.0,-1.6304226796733996,-8.617794657024044,-4.187439441680908,-0.0012276383937892359,0.0009231538729513529,-0.002731246535655604,0.08971900292153903,0.06535136084205022,0.029937731727542265,0.0008952621649433435,-0.0005377084564681856,0.00142042902746212,0.003416568083211406,0.018689536633710983,-0.024111980008185745
0.0,0.0,0.0,-1.6399961712533604,-8.607819610702274,-4.189857906234983,-0.0012276383937892359,0.0009231538729513529,-0.002731246535655604,0.08971900292153903,0.06535136084205022,0.029937731727542265,0.0008232334184979257,-0.0006487945777262366,0.001730219313869996,0.0011893123148644796,0.026349519687327325,-0.02681009157263239
0.0,0.0,0.0,-1.6646787822246552,-8.602883100509644,-4.194794416427612,-0.0012276383937892359,0.0009231538729513529,-0.002731246535655604,0.08971900292153903,0.06535136084205022,0.029937731727542265,0.0005283775462296724,-0.0011035339486398302,0.0029983722619122185,0.006469699612976375,0.021817875296960394,-0.032864764107204215
0.0,0.0,-0.001745329238474369,-1.6794226467978703,-8.605402529313514,-4.192274987623742,-0.0012276383937892359,0.0009231538729513529,-0.002731246535655604,0.08971900292153903,0.06535136084205022,0.029937731727542265,0.0005283779426130681,-0.0011035354855896506,0.0012530430232277792,-0.008281915303349006,0.01930701306562833,-0.030359838817600637
0.0,0.0,-0.001745329238474369,-1.684359147498451,-8.615275530714676,-4.18240198622258,-0.0012276383937892359,0.0009231538729513529,-0.002731246535655604,0.08971900292153903,0.06535136084205022,0.029937731727542265,0.0005283779426014381,-0.0011035354855164986,0.001253043023397974,-0.01322616487876119,0.009442576584261477,-0.02050133820320942
0.0,0.001745329238474369,-0.001745329238474369,-1.676534142186433,-8.617492309731789,-4.180185207205467,-0.0012276383937892359,0.0009231538729513529,-0.002731246535655604,0.08971900292153903,0.06535136084205022,0.029937731727542265,0.0003836402653476431,0.0005183313887862527,0.0011419812056650033,-0.013668341803129848,0.004243968405995728,-0.01744963483846516
0.0,0.001745329238474369,-0.003490658476948738,-1.6567899839634186,-8.612556270176036,-4.185121246761221,-0.0012276383937892359,0.0009231538729513529,-0.002731246535655604,0.08971900292153903,0.06535136084205022,0.029937731727542265,-0.00011510668074853059,9.288962429273215e-05,-0.0009860498101773266,-0.022391937279654918,-0.0011149860621247829,-0.01947575703254556
0.0,0.001745329238474369,-0.001745329238474369,-1.642279677009937,-8.60238183209444,-4.190058189401544,-0.0012276383937892359,0.0009231538729513529,-0.002731246535655604,0.08971900292153903,0.06535136084205022,0.029937731727542265,-0.000115108283541783,9.289257514337039e-05,0.0007592794281983324,-0.007884383382666317,0.009072654407649485,-0.024438872011891134
0.0,0.001745329238474369,0.0,-1.632405680828787,-8.587570927843284,-4.194995157485263,-0.0012276383937892359,0.0009231538729513529,-0.002731246535655604,0.08971900292153903,0.06535136084205022,0.029937731727542265,-0.00011510988588715579,9.289552568539239e-05,0.0025046086667620373,0.0019868595369420742,0.023896762210037253,-0.029402014962310853
0.0,0.0,0.0,-1.6305895305942362,-8.591561022309806,-4.191874651656376,-0.0012276383937892359,0.0009231538729513529,-0.002731246535655604,0.08971900292153903,0.06535136084205022,0.029937731727542265,1.629831876161761e-05,-0.0015496782849769462,0.002739510349394626,0.003054762178699814,0.030337150096040398,-0.030342614926629888
0.0,0.001745329238474369,0.0,-1.6355248643629126,-8.611302357384512,-4.1820039841190235,-0.0012276383937892359,0.0009231538729513529,-0.002731246535655604,0.08971900292153903,0.06535136084205022,0.029937731727542265,0.00040301467269501405,0.0004980476571504581,0.003430784301062941,-0.004081237403241448,0.04126527485037132,-0.03237009340028728
0.0,0.001745329238474369,-0.001745329238474369,-1.637710452079773,-8.633802684340601,-4.174881266983895,-0.0012276383937892359,0.0009231538729513529,-0.002731246535655604,0.08971900292153903,0.06535136084205022,0.029937731727542265,0.00040301538501498414,0.000498045845031776,0.0016854550627084857,-0.006285593721505195,0.018776658856964012,-0.02526407457758016
0.0,0.0,-0.001745329238474369,-1.637710452079773,-8.65849271176575,-4.169943357539116,-0.0012276383937892359,0.0009231538729513529,-0.002731246535655604,0.08971900292153903,0.06535136084205022,0.029937731727542265,0.0004030169223648281,-0.0012472833927804098,0.0016854568752344304,-0.006304362329911798,-0.00590165767324241,-0.020342863484868565
0.0,0.0,-0.003490658476948738,-1.634889794843643,-8.654975266420697,-4.1706468329258275,-0.0012276383937892359,0.0009231538729513529,-0.002731246535655604,0.08971900292153903,0.06535136084205022,0.029937731727542265,0.0006440065929193517,-0.001126378184416162,-7.216163352914892e-05,-0.005339024127743482,-0.010180821559162249,-0.0191356650473644
0.0,0.0,-0.003490658476948738,-1.6299551636756129,-8.630301630698105,-4.175581464093857,-0.0012276383937892359,0.0009231538729513529,-0.002731246535655604,0.08971900292153903,0.06535136084205022,0.029937731727542265,0.0012562572917964347,-0.0008192041046914842,-0.0001033835352198076,-0.0050874522574849675,-0.005335714552394414,-0.0191855371527149
0.0,0.001745329238474369,-0.001745329238474369,-1.6279038190841673,-8.611388250341044,-4.177632808685303,-0.0012276383937892359,0.0009231538729513529,-0.002731246535655604,0.08971900292153903,0.06535136084205022,0.029937731727542265,0.0012562560787309105,0.0009261250708506202,0.001641945766281657,-0.0030493694741890176,0.013580196832568656,-0.021236704263464568
0.0,0.001745329238474369,-0.001745329238474369,-1.6279038190841675,-8.596579454025038,-4.177632808685303,-0.0012276383937892359,0.0009231538729513529,-0.002731246535655604,0.08971900292153903,0.06535136084205022,0.029937731727542265,0.0012562560785081068,0.0009261250709565281,0.001641945766162673,-0.0030626300309806102,0.02839152391494103,-0.02123652679591484
-0.001745329238474369,0.0,-0.001745329238474369,-1.6279038190841675,-8.608343229903905,-4.186491875417103,-0.0012276383937892359,0.0009231538729513529,-0.002731246535655604,0.08971900292153903,0.06535136084205022,0.029937731727542265,-0.0005488667788540926,-0.00055973462356052,0.0011607706572307399,-0.001880357129788855,0.019674659418323564,-0.025396792143587376
-0.001745329238474369,-0.001745329238474369,-0.001745329238474369,-1.6279038190841675,-8.637957142378834,-4.2012985916675945,-0.0012276383937892359,0.0009231538729513529,-0.002731246535655604,0.08971900292153903,0.06535136084205022,0.029937731727542265,-0.0006811973088570052,-0.0017308481662229333,9.591816521744579e-05,0.0007654080102248719,-0.0032008777347374865,-0.02980759126345476
0.0,-0.001745329238474369,0.0,-1.630923437622251,-8.64040641164732,-4.201013470595952,-0.0012276383937892359,0.0009231538729513529,-0.002731246535655604,0.08971900292153903,0.06535136084205022,0.029937731727542265,0.0010641339904859481,-0.0017308497628990057,0.0018412453429802614,-0.0022247863617962855,-0.005652268784399824,-0.029530111135503807
0.0,0.0,0.0,-1.6358597030609197,-8.62559713528994,-4.191140939718615,-0.0012276383937892359,0.0009231538729513529,-0.002731246535655604,0.08971900292153903,0.06535136084205022,0.029937731727542265,0.0010641359466082628,1.4479475394370687e-05,0.001841244983419933,-0.007131633227845996,0.009154886124417165,-0.019665219823851474
0.0,0.001745329238474369,0.0,-1.634623412454291,-8.601522470499063,-4.19052648130639,-0.0012276383937892359,0.0009231538729513529,-0.002731246535655604,0.08971900292153903,0.06535136084205022,0.029937731727542265,0.0015384537913637217,0.0008223798045516872,0.001646858858131004,-0.0012150354122702522,0.02598788291012655,-0.021658959120892878
-0.001745329238474369,0.003490658476948738,0.0,-1.629688075633299,-8.571910449573108,-4.195461818127383,-0.0012276383937892359,0.0009231538729513529,-0.002731246535655604,0.08971900292153903,0.06535136084205022,0.029937731727542265,0.0007133588671874495,0.0007489789753867038,0.0012697235691768107,0.012767302648037302,0.04154624771215092,-0.03163291962375654
-0.001745329238474369,0.003490658476948738,0.0,-1.6373659633671842,-8.58328315747774,-4.190938004048108,-0.0012276383937892359,0.0009231538729513529,-0.002731246535655604,0.08971900292153903,0.06535136084205022,0.029937731727542265,0.000713358867520046,0.0007489789760201589,0.0012697235687133266,0.0051021537550815805,0.030154160302740908,-0.027074262348555183
-0.003490658476948738,0.001745329238474369,0.0,-1.6521783493042266,-8.6178452512854,-4.181063120103062,-0.0012276383937892359,0.0009231538729513529,-0.002731246535655604,0.08971900292153903,0.06535136084205022,0.029937731727542265,-0.0010319735836204229,-0.0009963470507459908,0.0012697168664190532,-0.009697495983638735,-0.004427309495605179,-0.01716454180591253
-0.001745329238474369,0.001745329238474369,0.0,-1.6605461368658958,-8.626629041661936,-4.184077407856547,-0.0012276383937892359,0.0009231538729513529,-0.002731246535655604,0.08971900292153903,0.06535136084205022,0.029937731727542265,-0.00011752228134460803,-0.0002990103626412326,0.0019634292977268666,-0.012842563328439211,-0.010812533994363327,-0.018595751071677224
0.0,0.001745329238474369,-0.001745329238474369,-1.6654812323878934,-8.621693946139938,-4.193947598900542,-0.0012276383937892359,0.0009231538729513529,-0.002731246535655604,0.08971900292153903,0.06535136084205022,0.029937731727542265,0.0002077681008572816,0.0008927998674281354,0.0014037028070905079,-0.008868435375331846,-0.00175257752283962,-0.025806201597319334
0.0,0.001745329238474369,-0.001745329238474369,-1.6638424271617605,-8.610180578909597,-4.193958031562396,-0.0012276383937892359,0.0009231538729513529,-0.002731246535655604,0.08971900292153903,0.06535136084205022,0.029937731727542265,0.00020776810084246274,0.0008927998675294161,0.001403702806984618,-0.007238021821222084,0.009773409677752795,-0.025839252666269616
0.0,0.0,-0.001745329238474369,-1.6589042856409266,-8.595366154347095,-4.189019890041561,-0.0012276383937892359,0.0009231538729513529,-0.002731246535655604,0.08971900292153903,0.06535136084205022,0.029937731727542265,0.0002077690189961527,-0.0008525293713048862,0.0014037050483325113,-0.0023082727841558922,0.02460045533830228,-0.020923731724747114
0.0,0.0,-0.001745329238474369,-1.6573238372802734,-8.607407800576253,-4.190796039943131,-0.0012276383937892359,0.0009231538729513529,-0.002731246535655604,0.08971900292153903,0.06535136084205022,0.029937731727542265,0.002007131093333612,-0.00011753784498586594,0.0010276805704226013,-0.0075813737861804755,0.025097298325235072,-0.02425971584332756
-0.001745329238474369,0.0,-0.001745329238474369,-1.6573238372802734,-8.632087982757758,-4.195732076379432,-0.0012276383937892359,0.0009231538729513529,-0.002731246535655604,0.08971900292153903,0.06535136084205022,0.029937731727542265,0.0029833203036405704,0.0009941321390814905,0.0004589494453653245,-0.0179270244502708,0.019354334309180307,-0.031507180838531795
-0.005235987715423107,-0.001745329238474369,-0.001745329238474369,-1.6504765884500878,-8.646505514394283,-4.190398867463604,-0.0012276383937892359,0.0009231538729513529,-0.002731246535655604,0.08971900292153903,0.06535136084205022,0.029937731727542265,-0.0005073393313893932,-0.0007511947833169302,0.00045895017820287044,-0.011047955624931998,0.004897527695141957,-0.02610546532907302
-0.005235987715423107,-0.001745329238474369,0.0,-1.6406002453804425,-8.65638227765977,-4.1805225844219365,-0.0012276383937892359,0.0009231538729513529,-0.002731246535655604,0.08971900292153903,0.06535136084205022,0.029937731727542265,-0.0005073351172938521,-0.0007512024782769902,0.0022042794167435034,-0.0011397892690274912,-0.005018514912364483,-0.01616066970825308
-0.005235987715423107,-0.001745329238474369,0.0,-1.6307242777827131,-8.638313331322173,-4.184618982982363,-0.0012276383937892359,0.0009231538729513529,-0.002731246535655604,0.08971900292153903,0.06535136084205022,0.029937731727542265,-0.001269345693233414,-0.0019429936813766177,0.002762188461225568,0.0004529159645331703,-0.0006423914169910905,-0.021276639592635805
-0.001745329238474369,0.0,0.0,-1.6208531397654966,-8.60869943729688,-4.194490120999579,-0.0012276383937892359,0.0009231538729513529,-0.002731246535655604,0.08971900292153903,0.06535136084205022,0.029937731727542265,0.001199666959594534,-0.001795525142030851,0.003510192796748164,-0.0008171908478360851,0.010637117087400772,-0.032549834529441116
-0.001745329238474369,0.001745329238474369,-0.001745329238474369,-1.618097186088562,-8.600431442260742,-4.19012697784282,-0.0012276383937892359,0.0009231538729513529,-0.002731246535655604,0.08971900292153903,0.06535136084205022,0.029937731727542265,0.0011996671652693422,-5.019212799030816e-05,0.0017648673330308935,0.0019125114707365634,0.018890333285484465,-0.0281453658193738
-0.001745329238474369,0.003490658476948738,-0.003490658476948738,-1.618097186088562,-8.600431442260742,-4.180254453245958,-0.0012276383937892359,0.0009231538729513529,-0.002731246535655604,0.08971900292153903,0.06535136084205022,0.029937731727542265,0.0011996673711108638,0.0016951408843750308,1.9541867384160704e-05,0.0018862650200792979,0.018875557014922432,-0.018231523613887173
-0.001745329238474369,0.001745329238474369,-0.003490658476948738,-1.628971935426541,-8.62218120532222,-4.1812577104432105,-0.0012276383937892359,0.0009231538729513529,-0.002731246535655604,0.08971900292153903,0.06535136084205022,0.029937731727542265,0.00043750075772178273,0.0007354673631133721,-0.0004888347760310948,-0.00044050259685406737,0.017197608500750264,-0.018467403519002116
-0.001745329238474369,0.0,-0.003490658476948738,-1.6437843116041135,-8.651806317793971,-4.18619514916259,-0.0012276383937892359,0.0009231538729513529,-0.002731246535655604,0.08971900292153903,0.06535136084205022,0.029937731727542265,-0.0004711542092876576,-7.320590631367198e-05,-0.0010949139187994004,-0.005037590665550685,0.011510733814268084,-0.022517849850907948
0.0,0.0,-0.001745329238474369,-1.6438230783230243,-8.66296627496514,-4.187439441680908,-0.0012276383937892359,0.0009231538729513529,-0.002731246535655604,0.08971900292153903,0.06535136084205022,0.029937731727542265,0.0012741768974459803,-7.320674597411225e-05,0.0006504134515973898,-0.005060001067112096,0.0003488241429960209,-0.02376481995100693
0.0,0.0,0.0,-1.6388855795842108,-8.667903713684519,-4.187439441680908,-0.0012276383937892359,0.0009231538729513529,-0.002731246535655604,0.08971900292153903,0.06535136084205022,0.029937731727542265,0.0012741787659347147,-7.320684848396456e-05,0.002395742689748945,-0.00010615066237227795,-0.004590566535613099,-0.023767496807775727
0.0,0.0,0.0,-1.6414737581808982,-8.638972378095295,-4.191202702035895,-0.0012276383937892359,0.0009231538729513529,-0.002731246535655604,0.08971900292153903,0.06535136084205022,0.029937731727542265,0.0010671857268187209,-0.0014685476834060387,0.0023626751929274113,0.004932250041693379,-0.0036746514701297365,-0.02776413074995589
0.0,0.001745329238474369,0.0,-1.646409854619587,-8.599483606585784,-4.196138738472196,-0.0012276383937892359,0.0009231538729513529,-0.002731246535655604,0.08971900292153903,0.06535136084205022,0.029937731727542265,0.0008480049815963811,-0.0012007180727996083,0.002327659966919136,0.008056763352008068,0.006151269740607018,-0.03294555474442963
0.0,0.003490658476948738,-0.001745329238474369,-1.6551752192247227,-8.586795801795109,-4.18958805973646,-0.0012276383937892359,0.0009231538729513529,-0.002731246535655604,0.08971900292153903,0.06535136084205022,0.029937731727542265,0.0008480103140590734,0.0005446103314162389,0.0005823298945543632,-0.0007211498694185945,0.018841310615141244,-0.026394280276690295
0.0,0.003490658476948738,-0.001745329238474369,-1.6650491425639555,-8.581858840125493,-4.1797141363972266,-0.0012276383937892359,0.0009231538729513529,-0.002731246535655604,0.08971900292153903,0.06535136084205022,0.029937731727542265,0.0008480103141915305,0.0005446103313504368,0.0005823298943117412,-0.010607624201663285,0.023780508805330277,-0.016519761158740383
0.0,0.003490658476948738,-0.001745329238474369,-1.667130470275879,-8.6041987298993,-4.185426326561893,-0.0012276383937892359,0.0009231538729513529,-0.002731246535655604,0.08971900292153903,0.06535136084205022,0.029937731727542265,0.0008130490324409814,0.0019033858704974253,0.0003864790659360324,-0.01840340104733446,0.020502986796482332,-0.020765066613111775
0.0,0.001745329238474369,-0.001745329238474369,-1.667130470275879,-8.633824754673784,-4.1953016681533875,-0.0012276383937892359,0.0009231538729513529,-0.002731246535655604,0.08971900292153903,0.06535136084205022,0.029937731727542265,0.0007801429371443534,0.001436933501542491,0.00020214492947641255,-0.02376388921592252,0.008818086222997104,-0.02926653382225223
