angular_velocity_x,angular_velocity_y,angular_velocity_z,linear_acceleration_x,linear_acceleration_y,linear_acceleration_z,fake_gyro_bias_x,fake_gyro_bias_y,fake_gyro_bias_z,fake_acc_bias_x,fake_acc_bias_y,fake_acc_bias_z,fake_gyro_noise_x,gyro_noise_y,gyro_noise_z,fake_acc_noise_x,fake_acc_noise_y,fake_acc_noise_z
0.0439822971502571,0.011868238913561441,0.0635299847725936,9.324489708333333,0.8907707083333333,-3.4078108749999996,-0.0021572997883881574,0.020803347455807853,0.07580565302255518,-0.014884706349888761,0.10220537538024199,0.09537180590457257,0.0,0.0,0.0,0.0,0.0,0.0
0.01117010721276371,0.03560471674068433,0.06981317007977318,9.324489708333333,0.8499096666666667,-3.162644625,-0.0021572997883881574,0.020803347455807853,0.07580565302255518,-0.014884706349888761,0.10220537538024199,0.09537180590457257,0.0,0.0,0.0,0.0,0.0,0.0
-0.016057029118347832,0.030019663134302467,0.07888888219014369,9.177389958333332,1.0623870833333333,-3.334261,-0.0021572997883881574,0.020803347455807853,0.07580565302255518,-0.014884706349888761,0.10220537538024199,0.09537180590457257,0.0,0.0,0.0,0.0,0.0,0.0
-0.0439822971502571,0.02583087292951608,0.08726646259971647,9.161045541666667,0.4903325,-3.113611375,-0.0021572997883881574,0.020803347455807853,0.07580565302255518,-0.014884706349888761,0.10220537538024199,0.09537180590457257,0.0,0.0,0.0,0.0,0.0,0.0
-0.050963614158234416,0.032114058236695664,0.09494591130849153,9.218250999999999,0.2860272916666666,-3.18716125,-0.0021572997883881574,0.020803347455807853,0.07580565302255518,-0.014884706349888761,0.10220537538024199,0.09537180590457257,0.0,0.0,0.0,0.0,0.0,0.0
-0.041887902047863905,0.016057029118347832,0.09704030641088471,8.956740333333332,-0.11441091666666667,-3.023717083333333,-0.0021572997883881574,0.020803347455807853,0.07580565302255518,-0.014884706349888761,0.10220537538024199,0.09537180590457257,0.0,0.0,0.0,0.0,0.0,0.0
-0.013264502315156905,0.01117010721276371,0.09634217471008698,9.389867375,-0.367749375,-3.170816833333333,-0.0021572997883881574,0.020803347455807853,0.07580565302255518,-0.014884706349888761,0.10220537538024199,0.09537180590457257,0.0,0.0,0.0,0.0,0.0,0.0
0.013962634015954637,0.021642082724729686,0.07330382858376185,9.242767624999999,-0.23699404166666665,-3.1299557916666663,-0.0021572997883881574,0.020803347455807853,0.07580565302255518,-0.014884706349888761,0.10220537538024199,0.09537180590457257,0.0,0.0,0.0,0.0,0.0,0.0
0.03630284844148206,0.0020943951023931952,0.07190756518216637,9.210078791666666,-0.07354987499999999,-3.1463002083333333,-0.0021572997883881574,0.020803347455807853,0.07580565302255518,-0.014884706349888761,0.10220537538024199,0.09537180590457257,0.0,0.0,0.0,0.0,0.0,0.0
0.04468042885105484,0.025132741228718346,0.06422811647339133,9.602344791666665,0.32688833333333334,-3.2443667083333327,-0.0021572997883881574,0.020803347455807853,0.07580565302255518,-0.014884706349888761,0.10220537538024199,0.09537180590457257,0.0,0.0,0.0,0.0,0.0,0.0
0.03700098014227979,0.023736477827122883,0.07120943348136866,9.079323458333333,0.6456044583333332,-3.2035056666666666,-0.0021572997883881574,0.020803347455807853,0.07580565302255518,-0.014884706349888761,0.10220537538024199,0.09537180590457257,0.0,0.0,0.0,0.0,0.0,0.0
0.019547687622336492,0.023038346126325153,0.0767944870877505,9.438900625,0.8662540833333333,-3.3260887916666664,-0.0021572997883881574,0.020803347455807853,0.07580565302255518,-0.014884706349888761,0.10220537538024199,0.09537180590457257,0.0,0.0,0.0,0.0,0.0,0.0
-0.008377580409572781,0.030019663134302467,0.08866272600131193,9.16921775,0.8253930416666666,-3.1463002083333333,-0.0021572997883881574,0.020803347455807853,0.07580565302255518,-0.014884706349888761,0.10220537538024199,0.09537180590457257,0.0,0.0,0.0,0.0,0.0,0.0
-0.032114058236695664,0.0153588974175501,0.08656833089891874,9.128356708333332,0.6864655000000001,-3.2361945,-0.0021572997883881574,0.020803347455807853,0.07580565302255518,-0.014884706349888761,0.10220537538024199,0.09537180590457257,0.0,0.0,0.0,0.0,0.0,0.0
-0.04258603374866164,0.01815142422074103,0.08237954069413235,9.349006333333334,0.2778550833333333,-3.18716125,-0.0021572997883881574,0.020803347455807853,0.07580565302255518,-0.014884706349888761,0.10220537538024199,0.09537180590457257,0.0,0.0,0.0,0.0,0.0,0.0
-0.03839724354387525,0.01815142422074103,0.07330382858376185,9.316317499999998,-0.196133,-3.2443667083333327,-0.0021572997883881574,0.020803347455807853,0.07580565302255518,-0.014884706349888761,0.10220537538024199,0.09537180590457257,0.0,0.0,0.0,0.0,0.0,0.0
-0.00767944870877505,0.020943951023931952,0.06702064327658225,9.324489708333333,-0.34323275000000003,-3.2361945,-0.0021572997883881574,0.020803347455807853,0.07580565302255518,-0.014884706349888761,0.10220537538024199,0.09537180590457257,0.0,0.0,0.0,0.0,0.0,0.0
0.03420845333908886,0.029321531433504733,0.07330382858376185,9.373522958333332,-0.0980665,-3.178989041666666,-0.0021572997883881574,0.020803347455807853,0.07580565302255518,-0.014884706349888761,0.10220537538024199,0.09537180590457257,0.0,0.0,0.0,0.0,0.0,0.0
0.041887902047863905,0.03560471674068433,0.08377580409572781,9.144701125,0.53936575,-3.195333458333333,-0.0021572997883881574,0.020803347455807853,0.07580565302255518,-0.014884706349888761,0.10220537538024199,0.09537180590457257,0.0,0.0,0.0,0.0,0.0,0.0
0.014660765716752367,0.02652900463031381,0.0879645943005142,9.185562166666665,1.2176590416666666,-3.18716125,-0.0021572997883881574,0.020803347455807853,0.07580565302255518,-0.014884706349888761,0.10220537538024199,0.09537180590457257,0.0,0.0,0.0,0.0,0.0,0.0
-0.0307177948351002,0.016755160819145562,0.1054178868204575,9.038462416666666,1.1931424166666666,-3.138128,-0.0021572997883881574,0.020803347455807853,0.07580565302255518,-0.014884706349888761,0.10220537538024199,0.09537180590457257,0.02322016990909861,0.000975143331707094,0.012418525910331416,-0.06164614702751411,0.20558570405805318,0.10452492560178334
-0.0767944870877505,0.014660765716752367,0.08028514559173915,9.161045541666667,0.784532,-3.3506054166666663,-0.0021572997883881574,0.020803347455807853,0.07580565302255518,-0.014884706349888761,0.10220537538024199,0.09537180590457257,-0.00372536212236986,0.0027589844025971803,-0.003718194688600367,-0.15135688567320782,0.4918417078654241,-0.08776240074797699
-0.06981317007977318,0.009075712110370514,0.0879645943005142,9.46341725,-0.196133,-3.178989041666666,-0.0021572997883881574,0.020803347455807853,0.07580565302255518,-0.014884706349888761,0.10220537538024199,0.09537180590457257,-0.016232549692405878,-0.010887832548239383,0.006356950537853406,0.11002885757509182,0.3121578454621677,-0.05086830329389342
-0.03700098014227979,0.0307177948351002,0.07539822368615504,9.242767624999999,-0.8172208333333333,-3.0809225416666663,-0.0021572997883881574,0.020803347455807853,0.07580565302255518,-0.014884706349888761,0.10220537538024199,0.09537180590457257,-0.03654849449615631,0.006393372600391034,0.009343610945892788,-0.06143810190194298,0.201456973496199,0.05150248897582515
0.03630284844148206,0.017453292519943295,0.056548667764616284,9.36535075,-1.2176590416666666,-3.18716125,-0.0021572997883881574,0.020803347455807853,0.07580565302255518,-0.014884706349888761,0.10220537538024199,0.09537180590457257,-0.03258824172398356,-0.010570707766614337,-0.007306760294997932,-0.0084244037739267,-0.5383607192815641,-0.12390162226325906
0.10122909661567112,0.039095375244672985,0.07120943348136866,9.381695166666667,-0.13892754166666665,-2.941995,-0.0021572997883881574,0.020803347455807853,0.07580565302255518,-0.014884706349888761,0.10220537538024199,0.09537180590457257,-0.0023340201341265935,0.006074645974913841,0.003717693553379538,0.22063316148347448,-0.6001227361800956,0.09639447770327683
0.10611601852125524,0.02652900463031381,0.0635299847725936,8.940395916666665,1.0623870833333333,-3.138128,-0.0021572997883881574,0.020803347455807853,0.07580565302255518,-0.014884706349888761,0.10220537538024199,0.09537180590457257,0.021733255111968636,0.0130744100468037,0.00040907671622910047,-0.06980473860316372,-0.3382000137461815,0.05496034794978391
0.06283185307179587,0.0,0.06283185307179587,9.079323458333333,1.7406803749999997,-3.2525389166666665,-0.0021572997883881574,0.020803347455807853,0.07580565302255518,-0.014884706349888761,0.10220537538024199,0.09537180590457257,0.041521911631613825,-0.003942833479998826,-0.004275352325163324,-0.11069401818645266,0.07867683153127993,0.06315285319705466
-0.02024581932313422,0.008377580409572781,0.07120943348136866,9.299973083333333,1.5854084166666664,-3.3832942499999996,-0.0021572997883881574,0.020803347455807853,0.07580565302255518,-0.014884706349888761,0.10220537538024199,0.09537180590457257,-0.008873960373361243,-0.011507598629416206,-0.008037432229508649,0.10538148392752969,0.35780938247444133,-0.16907645295851534
-0.06702064327658225,0.008377580409572781,0.07958701389094143,9.340834124999999,0.8172208333333333,-3.3506054166666663,-0.0021572997883881574,0.020803347455807853,0.07580565302255518,-0.014884706349888761,0.10220537538024199,0.09537180590457257,0.004111408940249728,-0.0034495899913600356,-0.00673709986833241,0.04054770656065403,0.1935511764837934,-0.014170403561019085
-0.0747000919853573,0.0153588974175501,0.09354964790689606,9.259112041666667,0.43312704166666666,-3.3260887916666664,-0.0021572997883881574,0.020803347455807853,0.07580565302255518,-0.014884706349888761,0.10220537538024199,0.09537180590457257,-0.005710181083114674,-0.006094405258430605,0.0002141002949337676,-0.05347039208865166,0.2874526335755109,-0.09967666461349418
-0.0635299847725936,0.02722713633111154,0.09215338450530061,9.36535075,-0.13892754166666665,-3.1299557916666663,-0.0021572997883881574,0.020803347455807853,0.07580565302255518,-0.014884706349888761,0.10220537538024199,0.09537180590457257,-0.014500252152680243,0.004749908712426933,-0.00272410729431435,0.1552028375701556,0.15647036840121345,-0.062987803379907
-0.03420845333908886,0.017453292519943295,0.09773843811168245,9.054806833333332,-0.4494714583333333,-3.0073726666666665,-0.0021572997883881574,0.020803347455807853,0.07580565302255518,-0.014884706349888761,0.10220537538024199,0.09537180590457257,-0.014597187021434217,0.00206233088174993,0.009939889079838985,-0.053465497543868104,-0.06850264283040118,0.09206361017413965
-0.005585053606381855,0.013264502315156905,0.07819075048934597,9.161045541666667,-0.3105439166666667,-3.195333458333333,-0.0021572997883881574,0.020803347455807853,0.07580565302255518,-0.014884706349888761,0.10220537538024199,0.09537180590457257,-0.018689307745873837,0.002045191570563391,-0.0048148811872593,-0.10250572790406731,-0.011385136667403224,-0.10390221740830419
0.032114058236695664,0.009075712110370514,0.08726646259971647,9.36535075,-0.2860272916666666,-2.99102825,-0.0021572997883881574,0.020803347455807853,0.07580565302255518,-0.014884706349888761,0.10220537538024199,0.09537180590457257,-0.00785854012899629,-0.0023413733106672926,0.0071231441608680165,-0.008465240411472945,-0.03594812159636336,0.12465957103625719
0.04817108735504349,0.013962634015954637,0.07400196028455958,9.381695166666667,-0.21247741666666667,-3.2443667083333327,-0.0021572997883881574,0.020803347455807853,0.07580565302255518,-0.014884706349888761,0.10220537538024199,0.09537180590457257,-0.0067328071772878246,-0.000312177818692332,0.004017232736712338,-0.06960240902363268,-0.3341142941941323,0.05135451331116666
0.0614355896702004,0.013962634015954637,0.06562437987498679,9.520622708333333,0.45764366666666667,-3.3506054166666663,-0.0021572997883881574,0.020803347455807853,0.07580565302255518,-0.014884706349888761,0.10220537538024199,0.09537180590457257,0.0030514479552268305,-0.010106294802913451,-0.013860065923483543,0.15091543784369638,-0.17100941063744865,-0.10783607895731571
0.05515240436302082,0.03420845333908886,0.09285151620609833,9.218250999999999,0.8008764166666666,-3.138128,-0.0021572997883881574,0.020803347455807853,0.07580565302255518,-0.014884706349888761,0.10220537538024199,0.09537180590457257,0.023184824023017532,0.007276839404206197,0.0020184870186774873,0.007980850594124211,-0.27329026910537213,0.10448544163870098
0.009075712110370514,0.019547687622336492,0.08936085770210968,9.201906583333333,1.348414375,-3.3506054166666663,-0.0021572997883881574,0.020803347455807853,0.07580565302255518,-0.014884706349888761,0.10220537538024199,0.09537180590457257,0.032007511255294135,-0.0001607518883421954,0.006048858041459525,-0.026001579046612076,0.03088386093990644,-0.1529531949785976
-0.032114058236695664,0.024434609527920613,0.08936085770210968,9.447072833333333,0.9970094166666666,-3.1544724166666662,-0.0021572997883881574,0.020803347455807853,0.07580565302255518,-0.014884706349888761,0.10220537538024199,0.09537180590457257,0.014377681091934748,-0.004983816877612034,-0.0036990673793583662,0.3430919917686234,0.14831926613692004,-0.0873788241052777
-0.0614355896702004,0.03420845333908886,0.09704030641088471,8.760607333333333,0.7028099166666667,-2.982856041666666,-0.0021572997883881574,0.020803347455807853,0.07580565302255518,-0.014884706349888761,0.10220537538024199,0.09537180590457257,0.0036646721404546712,0.016394389005597684,0.006885232428082596,-0.2616836609620249,0.2875034736398367,0.12091322881105239
-0.06841690667817772,0.0013962634015954637,0.08307767239493008,9.283628666666665,0.13075533333333333,-3.2280222916666665,-0.0021572997883881574,0.020803347455807853,0.07580565302255518,-0.014884706349888761,0.10220537538024199,0.09537180590457257,-0.012804182810146251,-0.00837712023563977,0.0009222091083066669,-0.10240380627671798,0.25072971519381065,-0.022390876280540307
-0.04258603374866164,0.01815142422074103,0.08168140899333462,9.487933875,-0.367749375,-3.18716125,-0.0021572997883881574,0.020803347455807853,0.07580565302255518,-0.014884706349888761,0.10220537538024199,0.09537180590457257,-0.016962307561695488,-0.004268515488896348,0.005785245154264225,0.1101167915533452,-0.023148816893586232,0.018780505060141738
-0.009075712110370514,0.02652900463031381,0.06981317007977318,9.26728425,-0.318716125,-3.2280222916666665,-0.0021572997883881574,0.020803347455807853,0.07580565302255518,-0.014884706349888761,0.10220537538024199,0.09537180590457257,-0.017695065518068865,0.0006067509431300541,0.003122873886689284,0.003877412505622021,0.021789853438669345,-0.03842406036668065
0.02652900463031381,0.025132741228718346,0.0635299847725936,9.259112041666667,-0.35957716666666667,-3.1544724166666662,-0.0021572997883881574,0.020803347455807853,0.07580565302255518,-0.014884706349888761,0.10220537538024199,0.09537180590457257,-0.009285063613578552,-0.006519066933315199,-0.004123413913014778,-0.041047243508406266,-0.22369084715587592,-0.013671589600014423
0.04468042885105484,0.03839724354387525,0.07190756518216637,9.340834124999999,0.08989429166666667,-3.1299557916666663,-0.0021572997883881574,0.020803347455807853,0.07580565302255518,-0.014884706349888761,0.10220537538024199,0.09537180590457257,-0.0007520688006965589,0.006343441934135957,0.00492217279030049,0.15926212656777103,-0.21960385847564998,0.02712316399910463
0.046076692252650306,0.025132741228718346,0.06213372137099814,9.022118,0.5311935416666667,-3.18716125,-0.0021572997883881574,0.020803347455807853,0.07580565302255518,-0.014884706349888761,0.10220537538024199,0.09537180590457257,0.005475788966701786,0.010662563120477715,-0.0023776893709050832,-0.17592679210118897,-0.08065250896362182,-0.005968720046548414
0.03560471674068433,0.0041887902047863905,0.06702064327658225,9.373522958333332,0.6946377083333333,-3.178989041666666,-0.0021572997883881574,0.020803347455807853,0.07580565302255518,-0.014884706349888761,0.10220537538024199,0.09537180590457257,0.012537073336289756,-0.007527290663763268,-0.0018957996039653743,0.17117065793294808,-0.06426954921054917,0.010423337256438146
0.010471975511965976,0.01884955592153876,0.07051130178057091,9.030290208333332,0.8253930416666666,-3.2035056666666666,-0.0021572997883881574,0.020803347455807853,0.07580565302255518,-0.014884706349888761,0.10220537538024199,0.09537180590457257,0.01639971304374992,-0.002448863990611509,-0.007275438056520906,-0.09813511858858992,-0.356789033673092,-0.11165761121436024
-0.02234021442552742,0.004886921905584123,0.07400196028455958,9.332661916666666,0.83356525,-3.293399958333333,-0.0021572997883881574,0.020803347455807853,0.07580565302255518,-0.014884706349888761,0.10220537538024199,0.09537180590457257,0.009269823123144496,-0.00883471398329107,-0.005030639949311186,-0.06974887232141139,0.16892866459114358,0.018656885404393992
-0.041189770347066175,0.02234021442552742,0.08447393579652555,9.471589458333332,0.4985047083333333,-3.334261,-0.0021572997883881574,0.020803347455807853,0.07580565302255518,-0.014884706349888761,0.10220537538024199,0.09537180590457257,0.006444040974040664,-0.002282281035266536,-0.0012305612270314581,0.14710080728498895,0.10361612781825237,-0.07513371181751265
-0.05375614096142535,0.02652900463031381,0.08656833089891874,9.177389958333332,0.29419949999999995,-3.18716125,-0.0021572997883881574,0.020803347455807853,0.07580565302255518,-0.014884706349888761,0.10220537538024199,0.09537180590457257,-0.00836760780418313,-0.0008352236525836991,-0.004243247128467596,0.020131905418439178,0.17272855990376215,-0.05453759974896788
-0.03700098014227979,0.027925268031909273,0.09494591130849153,9.136528916666666,-0.04903325,-3.0809225416666663,-0.0021572997883881574,0.020803347455807853,0.07580565302255518,-0.014884706349888761,0.10220537538024199,0.09537180590457257,-0.01138739209749707,0.0045463091452542445,0.0027369745913675726,-0.057382292364712366,0.1930118901744636,-0.013968691650117396
-0.013962634015954637,0.01884955592153876,0.09005898940290741,9.250939833333334,-0.43312704166666666,-3.0564059166666664,-0.0021572997883881574,0.020803347455807853,0.07580565302255518,-0.014884706349888761,0.10220537538024199,0.09537180590457257,-0.014458922985945382,0.001402348619105032,0.003434150703610642,0.0855922137914724,-0.0848525363129438,0.026789665872435472
0.014660765716752367,0.016057029118347832,0.08307767239493008,9.079323458333333,-0.26151066666666667,-3.113611375,-0.0021572997883881574,0.020803347455807853,0.07580565302255518,-0.014884706349888761,0.10220537538024199,0.09537180590457257,-0.009083264023995702,0.00247149970281037,-0.0028872091196906215,-0.15954844275950386,-0.20759875264442343,0.06774015909963184
0.032812189937493394,0.01117010721276371,0.08866272600131193,9.398039583333333,0.15527195833333335,-3.2525389166666665,-0.0021572997883881574,0.020803347455807853,0.07580565302255518,-0.014884706349888761,0.10220537538024199,0.09537180590457257,-0.0003898442690863071,-0.001530631833323981,0.002807608058945433,0.03235504812654916,-0.14640653826044522,-0.018377988962509955
0.033510321638291124,0.013962634015954637,0.08307767239493008,9.332661916666666,0.4494714583333333,-3.219850083333333,-0.0021572997883881574,0.020803347455807853,0.07580565302255518,-0.014884706349888761,0.10220537538024199,0.09537180590457257,0.009705118006416751,-0.004267811416404871,0.0018212284133390338,-0.00838751003365163,-0.18709188860292403,0.01059415303257919
0.014660765716752367,0.02234021442552742,0.07958701389094143,9.349006333333334,0.8253930416666666,-3.2443667083333327,-0.0021572997883881574,0.020803347455807853,0.07580565302255518,-0.014884706349888761,0.10220537538024199,0.09537180590457257,0.01255080379221363,0.0024788442129429137,-0.005630292134237227,-0.05343852789878511,0.09079897679390414,-0.026231203816416845
-0.010471975511965976,0.017453292519943295,0.09075712110370514,9.455245041666666,0.6456044583333332,-3.195333458333333,-0.0021572997883881574,0.020803347455807853,0.07580565302255518,-0.014884706349888761,0.10220537538024199,0.09537180590457257,0.0008860043946153269,-0.002690268845230104,0.009351428204192434,0.3050743135459597,-0.22629786123118137,-0.15718327311936064
-0.023736477827122883,0.01884955592153876,0.08866272600131193,9.112012291666666,0.0980665,-3.0972669583333334,-0.0021572997883881574,0.020803347455807853,0.07580565302255518,-0.014884706349888761,0.10220537538024199,0.09537180590457257,-0.010947411460264947,0.0026335566723959506,6.104980631525789e-05,-0.04934730962359886,0.1887846545815409,-0.00994620571278797
-0.0020943951023931952,0.013264502315156905,0.0879645943005142,9.210078791666666,-0.2778550833333333,-3.0809225416666663,-0.0021572997883881574,0.020803347455807853,0.07580565302255518,-0.014884706349888761,0.10220537538024199,0.09537180590457257,-0.01786512298042822,0.0009284436786772213,0.008386481188568454,-0.09824264187808267,0.05823263503153933,0.09607157203322798
0.033510321638291124,0.01117010721276371,0.07190756518216637,9.406211791666665,-0.392266,-3.2770555416666665,-0.0021572997883881574,0.020803347455807853,0.07580565302255518,-0.014884706349888761,0.10220537538024199,0.09537180590457257,-0.0068282538973468785,-0.006419446308645185,0.0038130727064101242,0.04870808282603195,-0.31764582491525895,-0.0874381257254005
0.047472955654245766,0.024434609527920613,0.0635299847725936,9.308145291666667,0.24516625,-3.1054391666666663,-0.0021572997883881574,0.020803347455807853,0.07580565302255518,-0.014884706349888761,0.10220537538024199,0.09537180590457257,0.00558713275917586,0.0029002821596336484,0.003268858742236879,-0.020696936442572724,-0.3461270619976524,0.16583908750881388
0.03630284844148206,0.01815142422074103,0.057246799465414,9.349006333333334,0.9398039583333333,-3.4404997083333333,-0.0021572997883881574,0.020803347455807853,0.07580565302255518,-0.014884706349888761,0.10220537538024199,0.09537180590457257,0.019619477696620532,-0.006499651761528564,-0.003224290590190425,0.01623433045902125,-0.27638179273407054,-0.046700507563275845
-0.0027925268031909274,0.0307177948351002,0.0635299847725936,9.316317499999998,1.495514125,-3.3506054166666663,-0.0021572997883881574,0.020803347455807853,0.07580565302255518,-0.014884706349888761,0.10220537538024199,0.09537180590457257,0.029457695188225275,-0.0003567517068716363,-0.009929600055429765,0.1181811783281459,0.05868605447835954,-0.042259840116914894
-0.06213372137099814,0.032114058236695664,0.08377580409572781,9.079323458333333,1.3811032083333332,-3.268883333333333,-0.0021572997883881574,0.020803347455807853,0.07580565302255518,-0.014884706349888761,0.10220537538024199,0.09537180590457257,0.02003469442967345,0.007107329935326394,-0.0015247957884379417,0.008130303969144883,0.3162969037938065,-0.08318247915978208
-0.10192722831646883,0.017453292519943295,0.08656833089891874,9.062979041666667,0.7518431666666666,-3.1054391666666663,-0.0021572997883881574,0.020803347455807853,0.07580565302255518,-0.014884706349888761,0.10220537538024199,0.09537180590457257,-0.005205669149133163,-0.0016463078761094973,-0.012170116818678233,-0.0003039083902421181,0.5407914720503938,-0.06698552861548734
-0.09215338450530061,0.02024581932313422,0.11100294042683936,9.062979041666667,-0.32688833333333334,-2.974683833333333,-0.0021572997883881574,0.020803347455807853,0.07580565302255518,-0.014884706349888761,0.10220537538024199,0.09537180590457257,-0.02086712924671918,0.007777899602218082,0.01050583512268488,-0.1188252099334029,0.3811994479840908,0.1368298124004867
-0.05026548245743669,0.004886921905584123,0.09005898940290741,9.299973083333333,-1.0869037083333333,-3.2525389166666665,-0.0021572997883881574,0.020803347455807853,0.07580565302255518,-0.014884706349888761,0.10220537538024199,0.09537180590457257,-0.032878341391536454,-0.01439798631702574,0.00248364066425912,0.13001111292785258,-0.9712332347570318,-0.3100816817215065
0.02234021442552742,0.017453292519943295,0.09005898940290741,9.479761666666667,-0.8825985,-2.8847895416666667,-0.0021572997883881574,0.020803347455807853,0.07580565302255518,-0.014884706349888761,0.10220537538024199,0.09537180590457257,-0.020091277733716013,-0.0015575124505270794,0.012126677581130094,0.056939335166612495,-0.39549126380267274,0.21473376860142634
0.06283185307179587,0.02024581932313422,0.06632251157578452,9.36535075,-0.08989429166666667,-3.317916583333333,-0.0021572997883881574,0.020803347455807853,0.07580565302255518,-0.014884706349888761,0.10220537538024199,0.09537180590457257,-0.007651251226581478,0.0010194256140498678,0.008719924119707907,0.1222358396510742,-0.2850267197071847,-0.11203282280977239
0.07749261878854824,0.01815142422074103,0.048869219055841226,9.1201845,0.48216029166666663,-3.0972669583333334,-0.0021572997883881574,0.020803347455807853,0.07580565302255518,-0.014884706349888761,0.10220537538024199,0.09537180590457257,0.007902778069526101,-0.006553540459351216,-0.012764257521526759,-0.11040136370741335,-0.29742150331253797,0.05964294238163394
0.06213372137099814,0.0307177948351002,0.0747000919853573,9.340834124999999,1.0787315,-3.219850083333333,-0.0021572997883881574,0.020803347455807853,0.07580565302255518,-0.014884706349888761,0.10220537538024199,0.09537180590457257,0.02237415387325271,0.004553114003899814,0.00179113166373402,0.04478377284894624,0.05821716457473824,-0.009897994698951746
0.017453292519943295,0.021642082724729686,0.07051130178057091,9.250939833333334,0.9643205833333333,-3.2035056666666666,-0.0021572997883881574,0.020803347455807853,0.07580565302255518,-0.014884706349888761,0.10220537538024199,0.09537180590457257,0.016520600820018598,-0.0029849608691746824,-0.011740523790222302,0.1100703715332015,-0.11340375263642612,-0.005592584719991752
-0.016057029118347832,0.027925268031909273,0.0942477796076938,9.030290208333332,1.1931424166666666,-3.195333458333333,-0.0021572997883881574,0.020803347455807853,0.07580565302255518,-0.014884706349888761,0.10220537538024199,0.09537180590457257,0.018750514666727464,0.010990691743940293,0.0015808899925262062,-0.02479317516972969,0.26666552554406475,-0.0589436282316525
-0.05305800926062762,0.005585053606381855,0.09075712110370514,9.079323458333333,0.661948875,-3.0809225416666663,-0.0021572997883881574,0.020803347455807853,0.07580565302255518,-0.014884706349888761,0.10220537538024199,0.09537180590457257,0.0016480581518968852,-0.003305091645134647,-0.007939807304294175,-0.06162626952959956,0.09922925207892835,0.01031376649174887
-0.056548667764616284,0.011868238913561441,0.10681415022205297,9.201906583333333,0.465815875,-3.1054391666666663,-0.0021572997883881574,0.020803347455807853,0.07580565302255518,-0.014884706349888761,0.10220537538024199,0.09537180590457257,0.0027005179236837843,0.008354473460505671,0.017414031885026323,-0.15543747993285784,0.33640460765684127,0.06328197695900135
-0.0614355896702004,-0.004886921905584123,0.07190756518216637,9.5124505,-0.20430520833333332,-3.2361945,-0.0021572997883881574,0.020803347455807853,0.07580565302255518,-0.014884706349888761,0.10220537538024199,0.09537180590457257,-0.01615177143561354,-0.007059690652838043,-0.0042751691821718805,0.15892908605267436,-0.06792186598116771,-0.0797604885028896
-0.029321531433504733,0.009075712110370514,0.08028514559173915,9.193734375,-0.06537766666666667,-3.0809225416666663,-0.0021572997883881574,0.020803347455807853,0.07580565302255518,-0.014884706349888761,0.10220537538024199,0.09537180590457257,-0.018648261616305485,-0.007529900531188618,0.003248138144588083,0.015701294373326985,0.1695470764041079,-0.19941573697639867
0.0,0.008377580409572781,0.06562437987498679,9.36535075,-0.63743225,-3.0890947499999997,-0.0021572997883881574,0.020803347455807853,0.07580565302255518,-0.014884706349888761,0.10220537538024199,0.09537180590457257,-0.017453219549023864,-0.000140819048904933,0.0007689335307316068,-0.06978898657404665,-0.23957295459464065,0.10011182651117417
0.03490658503988659,0.008377580409572781,0.06422811647339133,9.504278291666665,-0.15527195833333335,-3.293399958333333,-0.0021572997883881574,0.020803347455807853,0.07580565302255518,-0.014884706349888761,0.10220537538024199,0.09537180590457257,-0.013664853445395553,-0.006893045417723676,-0.0029568610607913952,0.12638785855402576,-0.12572969155655134,-0.10384628582045234
0.06213372137099814,0.021642082724729686,0.06981317007977318,9.250939833333334,0.0980665,-3.0890947499999997,-0.0021572997883881574,0.020803347455807853,0.07580565302255518,-0.014884706349888761,0.10220537538024199,0.09537180590457257,0.0032591103358529908,0.0047443563688167895,-0.0019729755599803907,0.028312913593979843,-0.301639422011236,0.047120262789024224
0.05515240436302082,0.011868238913561441,0.07400196028455958,9.193734375,0.7028099166666667,-3.18716125,-0.0021572997883881574,0.020803347455807853,0.07580565302255518,-0.014884706349888761,0.10220537538024199,0.09537180590457257,0.013301161135013425,0.004830596406597356,-0.001050435324189418,0.11821597592505247,-0.18300894601964177,0.014200580142487224
0.028623399732707,0.0027925268031909274,0.07609635538695278,8.956740333333332,1.0705592916666666,-3.219850083333333,-0.0021572997883881574,0.020803347455807853,0.07580565302255518,-0.014884706349888761,0.10220537538024199,0.09537180590457257,0.023394709826017577,0.0011694997581891667,0.0005777364488927688,-0.2905148658822976,0.05032328138493315,0.046932491848009614
-0.01815142422074103,0.0,0.0747000919853573,9.536967125,0.9724927916666666,-3.317916583333333,-0.0021572997883881574,0.020803347455807853,0.07580565302255518,-0.014884706349888761,0.10220537538024199,0.09537180590457257,0.01226964116980198,-0.010534199330672145,-0.0029564082908778958,0.11413386159609566,0.0911596572414373,0.04317635687436505
-0.04258603374866164,0.020943951023931952,0.08098327729253688,9.308145291666667,0.7927042083333332,-3.4078108749999996,-0.0021572997883881574,0.020803347455807853,0.07580565302255518,-0.014884706349888761,0.10220537538024199,0.09537180590457257,0.006743130644114085,0.007201545475973045,-0.0002676843591639987,0.11011143800885632,0.2016692181733364,-0.10803526309307628
-0.05585053606381855,0.006283185307179587,0.08168140899333462,9.087495666666666,0.392266,-3.195333458333333,-0.0021572997883881574,0.020803347455807853,0.07580565302255518,-0.014884706349888761,0.10220537538024199,0.09537180590457257,-0.0060832461205494555,-0.009480368601922041,-0.005260125950226131,-0.22914088928296758,0.18117651395759451,0.08807417762194893
-0.0439822971502571,0.025132741228718346,0.09215338450530061,9.545139333333333,0.032688833333333334,-3.3751220416666667,-0.0021572997883881574,0.020803347455807853,0.07580565302255518,-0.014884706349888761,0.10220537538024199,0.09537180590457257,-0.010502191657157331,-0.002131765995095454,0.0025398043279688995,0.25313157187015983,0.13602323519817738,-0.1282986676280819
-0.023038346126325153,0.029321531433504733,0.08656833089891874,9.038462416666666,-0.23699404166666665,-3.1217835833333334,-0.0021572997883881574,0.020803347455807853,0.07580565302255518,-0.014884706349888761,0.10220537538024199,0.09537180590457257,-0.012599817589218394,0.004347931016881926,0.01175160786498591,0.011931880228254059,-0.3101776523026659,-0.1892444832512527
0.003490658503988659,0.019547687622336492,0.08377580409572781,9.185562166666665,-0.21247741666666667,-3.170816833333333,-0.0021572997883881574,0.020803347455807853,0.07580565302255518,-0.014884706349888761,0.10220537538024199,0.09537180590457257,-0.010217781343825604,-0.004965499115494123,0.006160566454550784,0.04875335241490822,-0.10112962803318898,-0.04256164538870423
0.023736477827122883,0.029321531433504733,0.07120943348136866,9.087495666666666,-0.008172208333333333,-3.0890947499999997,-0.0021572997883881574,0.020803347455807853,0.07580565302255518,-0.014884706349888761,0.10220537538024199,0.09537180590457257,-0.008051558082758847,0.012678128302449482,-0.0037571452517702127,-0.032993141040615806,-0.105173555167322,0.03915926858562861
0.039793506945470715,0.0041887902047863905,0.07888888219014369,9.152873333333332,0.20430520833333332,-3.170816833333333,-0.0021572997883881574,0.020803347455807853,0.07580565302255518,-0.014884706349888761,0.10220537538024199,0.09537180590457257,0.005120540144595464,-0.006620869666077156,0.008099917826012736,-0.18818485581327804,-0.10940999263367834,0.063481239753545
0.029321531433504733,0.017453292519943295,0.06283185307179587,9.528794916666666,0.42495483333333334,-3.3015721666666664,-0.0021572997883881574,0.020803347455807853,0.07580565302255518,-0.014884706349888761,0.10220537538024199,0.09537180590457257,0.003407688717318254,-0.0032782581626635103,-0.005361519451419989,0.19994358201600881,-0.12953358360498307,-0.05074659552290166
0.023038346126325153,0.023736477827122883,0.07330382858376185,9.128356708333332,0.6864655000000001,-3.2035056666666666,-0.0021572997883881574,0.020803347455807853,0.07580565302255518,-0.014884706349888761,0.10220537538024199,0.09537180590457257,0.009167423684777297,0.0022053727369274636,-0.00018277644348012323,-0.15953845413908374,-0.043847646096891756,0.05546943772075944
0.0041887902047863905,0.019547687622336492,0.07400196028455958,9.447072833333333,0.7763597916666666,-3.317916583333333,-0.0021572997883881574,0.020803347455807853,0.07580565302255518,-0.014884706349888761,0.10220537538024199,0.09537180590457257,0.011378038011941123,-0.005484173448127141,0.000927908184030691,0.05701312384118159,0.02985266204415186,-0.01782867594512902
-0.01815142422074103,0.030019663134302467,0.07190756518216637,9.332661916666666,0.7191543333333333,-3.2852277500000002,-0.0021572997883881574,0.020803347455807853,0.07580565302255518,-0.014884706349888761,0.10220537538024199,0.09537180590457257,0.005471270489487705,0.00021593305930276763,-0.005966962037861098,0.09796219485073586,0.15246209022621515,-0.0667943396537331
-0.029321531433504733,0.029321531433504733,0.08377580409572781,9.136528916666666,0.416782625,-3.1544724166666662,-0.0021572997883881574,0.020803347455807853,0.07580565302255518,-0.014884706349888761,0.10220537538024199,0.09537180590457257,-0.0052233594723109,0.005810519241121516,-0.0034496192640529866,0.007976207841454962,0.21790123137467035,-0.07524652886787747
-0.01884955592153876,0.017453292519943295,0.09075712110370514,9.1201845,-0.016344416666666667,-3.0073726666666665,-0.0021572997883881574,0.020803347455807853,0.07580565302255518,-0.014884706349888761,0.10220537538024199,0.09537180590457257,-0.005461051034284944,0.003893986935445056,0.004547387843109036,0.05283954295060575,-0.04000519531744395,-0.009920324394381386
-0.00767944870877505,0.009773843811168246,0.08237954069413235,9.013945791666666,0.06537766666666667,-2.99102825,-0.0021572997883881574,0.020803347455807853,0.07580565302255518,-0.014884706349888761,0.10220537538024199,0.09537180590457257,-0.001100146658345472,-0.007971467630649307,0.005741547303135668,0.06456268056174506,-0.39469017152802593,-0.04946006283375734
-0.01117010721276371,-0.00767944870877505,0.07539822368615504,9.259112041666667,0.48216029166666663,-3.309744375,-0.0021572997883881574,0.020803347455807853,0.07580565302255518,-0.014884706349888761,0.10220537538024199,0.09537180590457257,0.0051098563941893264,-0.00949290827766292,0.0002247343857951317,-0.0780517718823713,-0.08451837227770032,0.06719878258001245
-0.021642082724729686,0.01117010721276371,0.07539822368615504,9.414383999999998,0.6537766666666667,-3.4486719166666666,-0.0021572997883881574,0.020803347455807853,0.07580565302255518,-0.014884706349888761,0.10220537538024199,0.09537180590457257,0.007456611335279147,-0.0005012046981801553,0.0021239838656836917,0.08955322493812026,0.20579182148028147,-0.09160108516839836
-0.03630284844148206,0.011868238913561441,0.07120943348136866,9.234595416666666,0.24516625,-3.268883333333333,-0.0021572997883881574,0.020803347455807853,0.07580565302255518,-0.014884706349888761,0.10220537538024199,0.09537180590457257,-0.004812628295390024,-0.010274839328387436,-0.008623112308566473,-0.06142814912574019,0.20978092812266078,0.006407067120482699
-0.02652900463031381,0.032114058236695664,0.08866272600131193,9.357178541666666,-0.17161637500000002,-3.2852277500000002,-0.0021572997883881574,0.020803347455807853,0.07580565302255518,-0.014884706349888761,0.10220537538024199,0.09537180590457257,-0.01877610869647841,0.004839398149622763,0.005346874007175169,0.07739939572297708,0.24627400950045497,-0.19351285972258406
0.01117010721276371,0.02234021442552742,0.07749261878854824,9.201906583333333,-0.661948875,-2.9011339583333333,-0.0021572997883881574,0.020803347455807853,0.07580565302255518,-0.014884706349888761,0.10220537538024199,0.09537180590457257,-0.024817778631125338,9.159025287823777e-05,-0.0015382998520170395,0.04066628610176306,-0.03598301168114185,0.014869936185832664
0.06073745796940267,0.021642082724729686,0.08098327729253688,9.1201845,-0.5883989999999999,-2.9338227916666666,-0.0021572997883881574,0.020803347455807853,0.07580565302255518,-0.014884706349888761,0.10220537538024199,0.09537180590457257,-0.01827332588313753,0.005035274351203364,0.006270807939201923,-0.0452578214039619,-0.26500483350080156,0.06358636072361365
0.09704030641088471,0.011868238913561441,0.06771877497737998,9.210078791666666,-0.057205458333333334,-3.0645781249999997,-0.0021572997883881574,0.020803347455807853,0.07580565302255518,-0.014884706349888761,0.10220537538024199,0.09537180590457257,0.006391849822879199,0.009302964801419096,0.00394104026775247,0.06506823986418117,-0.6163394545083626,0.08349947980194065
0.08447393579652555,-0.006283185307179587,0.060039326268604934,9.079323458333333,1.1767979999999998,-3.2361945,-0.0021572997883881574,0.020803347455807853,0.07580565302255518,-0.014884706349888761,0.10220537538024199,0.09537180590457257,0.030446610364822338,-0.007557507082751342,-0.0020683367195721987,-0.15165511672049353,-0.35443690536699424,0.10380338654993793
0.023736477827122883,0.008377580409572781,0.06422811647339133,9.381695166666667,1.887780125,-3.4486719166666666,-0.0021572997883881574,0.020803347455807853,0.07580565302255518,-0.014884706349888761,0.10220537538024199,0.09537180590457257,0.03544249509259611,-0.0009246085409499097,-0.003575214986389594,0.044580201626528794,0.19770267728058544,-0.02231769494637171
-0.047472955654245766,0.010471975511965976,0.07190756518216637,9.291800875,1.495514125,-3.4078108749999996,-0.0021572997883881574,0.020803347455807853,0.07580565302255518,-0.014884706349888761,0.10220537538024199,0.09537180590457257,-0.007745728159660796,-0.00538449326193722,0.0006757855664399458,0.19963031796399008,0.2227603202757442,-0.3197158304826232
-0.08587019919812101,0.019547687622336492,0.08168140899333462,9.438900625,0.7436709583333333,-3.309744375,-0.0021572997883881574,0.020803347455807853,0.07580565302255518,-0.014884706349888761,0.10220537538024199,0.09537180590457257,-0.0008154196648727268,-0.001108888480629407,-0.0068490572099752876,0.21643396660235367,0.37345043540217376,-0.09989116799932171
-0.08447393579652555,0.020943951023931952,0.09564404300928926,9.005773583333333,0.0,-3.113611375,-0.0021572997883881574,0.020803347455807853,0.07580565302255518,-0.014884706349888761,0.10220537538024199,0.09537180590457257,-0.009393775647023572,0.00026366116043981844,0.00827016966460103,-0.1595711193039867,0.2546939409093406,-0.034423959868937114
-0.06562437987498679,0.02024581932313422,0.07888888219014369,9.324489708333333,-0.5066769166666666,-3.0482337083333335,-0.0021572997883881574,0.020803347455807853,0.07580565302255518,-0.014884706349888761,0.10220537538024199,0.09537180590457257,-0.026179119578416052,0.0041829475229785765,-0.005733602967368434,0.00786716068891275,-0.02302222381042105,-0.03449323660497853
-0.013264502315156905,0.011868238913561441,0.09075712110370514,9.308145291666667,-0.45764366666666667,-2.982856041666666,-0.0021572997883881574,0.020803347455807853,0.07580565302255518,-0.014884706349888761,0.10220537538024199,0.09537180590457257,-0.017027643551790178,-0.0014112070696518366,0.015369637701222181,-0.04529198287103248,0.005099979898249327,0.1207371448128421
0.020943951023931952,0.014660765716752367,0.060039326268604934,9.398039583333333,-0.465815875,-3.2280222916666665,-0.0021572997883881574,0.020803347455807853,0.07580565302255518,-0.014884706349888761,0.10220537538024199,0.09537180590457257,-0.015262181600846749,-0.0007818072099066627,0.0019536913233574107,0.1469820275541767,-0.32145552830526575,-0.075266879970849
0.05166174585903216,0.016057029118347832,0.05585053606381855,9.103840083333333,0.17978858333333333,-3.0809225416666663,-0.0021572997883881574,0.020803347455807853,0.07580565302255518,-0.014884706349888761,0.10220537538024199,0.09537180590457257,-0.0031426893988012413,-0.0005920436448579627,-0.004354419854196454,-0.16380210997527275,-0.04794750681487768,0.14938002178910817
0.05794493116621174,0.016755160819145562,0.06492624817418906,9.430728416666666,0.2778550833333333,-3.3832942499999996,-0.0021572997883881574,0.020803347455807853,0.07580565302255518,-0.014884706349888761,0.10220537538024199,0.09537180590457257,0.00802594820652435,-0.00630456499296053,0.004787582318557123,0.06108920338253319,-0.13777146045525815,-0.09165073886163706
0.041887902047863905,0.029321531433504733,0.05515240436302082,9.308145291666667,0.5557101666666666,-3.2035056666666666,-0.0021572997883881574,0.020803347455807853,0.07580565302255518,-0.014884706349888761,0.10220537538024199,0.09537180590457257,0.01097904514908739,0.004624582139463458,-0.006691670851101611,0.1346716506283391,-0.2724930107370149,0.018875597435082787
0.02024581932313422,0.02024581932313422,0.06841690667817772,9.038462416666666,1.103248125,-3.2443667083333327,-0.0021572997883881574,0.020803347455807853,0.07580565302255518,-0.014884706349888761,0.10220537538024199,0.09537180590457257,0.01637144255794953,0.0009916111388120097,-0.004716539853783578,-0.10229552125740926,-0.08055055778316118,0.04323348757526484
-0.012566370614359173,0.01815142422074103,0.07819075048934597,9.242767624999999,1.2666922916666667,-3.334261,-0.0021572997883881574,0.020803347455807853,0.07580565302255518,-0.014884706349888761,0.10220537538024199,0.09537180590457257,0.03175394981198471,-0.011409200342391027,0.003298526707179398,0.12309717584588094,-0.26534177775863554,-0.23007454716054923
-0.04956735075663895,0.032114058236695664,0.09215338450530061,9.210078791666666,0.7927042083333332,-3.195333458333333,-0.0021572997883881574,0.020803347455807853,0.07580565302255518,-0.014884706349888761,0.10220537538024199,0.09537180590457257,0.009060267624919533,0.007071479543430007,-7.320640975359281e-05,-0.03686172057864598,0.17294536295393959,-0.005648827676295736
-0.06771877497737998,0.01884955592153876,0.09215338450530061,9.283628666666665,0.4494714583333333,-3.18716125,-0.0021572997883881574,0.020803347455807853,0.07580565302255518,-0.014884706349888761,0.10220537538024199,0.09537180590457257,-0.0033916248412850735,-2.8143042695252717e-05,0.0026976631814979207,0.08152213352233136,0.2956357651047705,-0.054758380533793075
-0.06073745796940267,0.01815142422074103,0.08656833089891874,9.1201845,-0.13892754166666665,-3.0809225416666663,-0.0021572997883881574,0.020803347455807853,0.07580565302255518,-0.014884706349888761,0.10220537538024199,0.09537180590457257,-0.015547123480272878,0.003164229124190872,-0.0014549610860480617,0.02004277700884763,0.1851649439512223,0.014521499425803344
-0.029321531433504733,0.011868238913561441,0.08936085770210968,9.079323458333333,-0.5066769166666666,-3.113611375,-0.0021572997883881574,0.020803347455807853,0.07580565302255518,-0.014884706349888761,0.10220537538024199,0.09537180590457257,-0.021555511770625455,0.0030341595547545073,0.0027566023971350366,-0.16785874669081718,-0.03162775936181584,0.010290520561582056
0.013264502315156905,0.005585053606381855,0.08447393579652555,9.414383999999998,-0.44129925,-3.138128,-0.0021572997883881574,0.020803347455807853,0.07580565302255518,-0.014884706349888761,0.10220537538024199,0.09537180590457257,-0.01523699790699147,-0.004127771760235365,0.013214326768471975,0.04467112322415179,-0.1951717759049643,0.051068793104451476
0.0439822971502571,0.013962634015954637,0.057246799465414,9.324489708333333,-0.04903325,-3.2443667083333327,-0.0021572997883881574,0.020803347455807853,0.07580565302255518,-0.014884706349888761,0.10220537538024199,0.09537180590457257,-0.006234485135082344,-0.0018950468123675995,-0.006231135387747847,0.007950648831192732,-0.2564427724466897,0.026907138585543854
0.056548667764616284,0.017453292519943295,0.07051130178057091,9.308145291666667,0.465815875,-3.3015721666666664,-0.0021572997883881574,0.020803347455807853,0.07580565302255518,-0.014884706349888761,0.10220537538024199,0.09537180590457257,0.007717169555846483,-0.003854261503309995,0.001449562768939634,-0.08190880540587998,-0.15429001187753316,0.0023680714965090407
0.04049163864626844,0.025132741228718346,0.06702064327658225,9.471589458333332,0.7763597916666666,-3.309744375,-0.0021572997883881574,0.020803347455807853,0.07580565302255518,-0.014884706349888761,0.10220537538024199,0.09537180590457257,0.01202218711890907,-0.002558736427755592,-0.005888419267185504,0.1591301359116414,-0.12153903578339759,-0.026271531482147583
0.016755160819145562,0.030019663134302467,0.07888888219014369,9.152873333333332,1.0215260416666667,-3.260711125,-0.0021572997883881574,0.020803347455807853,0.07580565302255518,-0.014884706349888761,0.10220537538024199,0.09537180590457257,0.018694298899105125,0.0065364335934516415,-0.0011830621122627168,0.06940358557781623,0.05825294498795747,-0.062794962909422
-0.02024581932313422,0.016755160819145562,0.08168140899333462,9.013945791666666,0.9071151249999999,-3.138128,-0.0021572997883881574,0.020803347455807853,0.07580565302255518,-0.014884706349888761,0.10220537538024199,0.09537180590457257,0.00856171753344688,-0.012125409225468828,0.0016709676952689678,0.03947598275766056,-0.4747022755789402,-0.1439711806792953
-0.03839724354387525,0.0153588974175501,0.09145525280450287,9.234595416666666,0.6537766666666667,-3.2035056666666666,-0.0021572997883881574,0.020803347455807853,0.07580565302255518,-0.014884706349888761,0.10220537538024199,0.09537180590457257,0.003055874193631125,0.0017264097696273472,-0.002377032469437779,0.028369390869389933,0.2461312261330898,-0.010119763418706492
-0.0439822971502571,0.011868238913561441,0.09634217471008698,9.177389958333332,0.16344416666666667,-3.18716125,-0.0021572997883881574,0.020803347455807853,0.07580565302255518,-0.014884706349888761,0.10220537538024199,0.09537180590457257,-0.004566210306722589,0.002029392492185313,0.009840137130042708,-0.10662473228600582,0.10352665695404546,0.034795001255479185
-0.03490658503988659,0.00767944870877505,0.07609635538695278,9.389867375,-0.04086104166666667,-3.260711125,-0.0021572997883881574,0.020803347455807853,0.07580565302255518,-0.014884706349888761,0.10220537538024199,0.09537180590457257,-0.0064978438798501525,-0.002171828427291192,0.00582550111465053,0.04884914518951658,0.034165749917337826,-0.04274127577994975
-0.021642082724729686,0.011868238913561441,0.06492624817418906,9.291800875,-0.10623870833333333,-3.178989041666666,-0.0021572997883881574,0.020803347455807853,0.07580565302255518,-0.014884706349888761,0.10220537538024199,0.09537180590457257,-0.011369180713372427,-0.0026527127225436944,0.006663484642286996,0.011862305800740758,0.010032107552888475,-0.014087533857947362
0.0006981317007977319,0.016755160819145562,0.05166174585903216,9.26728425,-0.122583125,-3.1544724166666662,-0.0021572997883881574,0.020803347455807853,0.07580565302255518,-0.014884706349888761,0.10220537538024199,0.09537180590457257,-0.009712126757060376,-0.00021563660778778655,-0.006301847779563082,-0.06149451719746964,-0.1456860297925776,0.02690167968409611
0.02024581932313422,0.017453292519943295,0.06422811647339133,9.389867375,0.17161637500000002,-3.211677875,-0.0021572997883881574,0.020803347455807853,0.07580565302255518,-0.014884706349888761,0.10220537538024199,0.09537180590457257,-0.002404122246362272,-0.003684290438294214,-0.005225152885200824,0.06518009857442801,-0.12951940524912223,-0.009838108723634782
0.025132741228718346,0.024434609527920613,0.0747000919853573,9.259112041666667,0.43312704166666666,-3.195333458333333,-0.0021572997883881574,0.020803347455807853,0.07580565302255518,-0.014884706349888761,0.10220537538024199,0.09537180590457257,0.0023164034855633763,0.0044843025992800266,-0.007789096189734534,0.15916106140334627,-0.0522876977044902,-0.08748397586870088
0.020943951023931952,0.0153588974175501,0.09005898940290741,8.940395916666665,0.53936575,-3.023717083333333,-0.0021572997883881574,0.020803347455807853,0.07580565302255518,-0.014884706349888761,0.10220537538024199,0.09537180590457257,0.008744344837979208,0.0038523765350966664,0.002935738688517312,-0.14323564536012323,-0.10959885094123441,0.09614661691878446
0.003490658503988659,0.00767944870877505,0.08447393579652555,9.226423208333333,0.7600153749999999,-3.219850083333333,-0.0021572997883881574,0.020803347455807853,0.07580565302255518,-0.014884706349888761,0.10220537538024199,0.09537180590457257,0.010734789889836427,-0.000602373613886095,-0.0018937698688012911,-0.1515836486139781,-0.015287390670453902,0.09614332866810785
-0.01815142422074103,0.008377580409572781,0.0879645943005142,9.528794916666666,0.7927042083333332,-3.415983083333333,-0.0021572997883881574,0.020803347455807853,0.07580565302255518,-0.014884706349888761,0.10220537538024199,0.09537180590457257,0.010827203748416689,-0.014600724536819045,0.011319403450127084,0.3960707059579996,-0.4456290995548491,-0.34370441546029334
-0.047472955654245766,0.01884955592153876,0.07051130178057091,9.234595416666666,0.63743225,-3.2443667083333327,-0.0021572997883881574,0.020803347455807853,0.07580565302255518,-0.014884706349888761,0.10220537538024199,0.09537180590457257,0.002125411518131854,-0.0008123627944395065,0.005428197109598867,-0.08198166715922468,0.336754335228248,-0.005874943080307837
-0.05166174585903216,0.02024581932313422,0.059341194567807204,9.398039583333333,-0.032688833333333334,-3.2361945,-0.0021572997883881574,0.020803347455807853,0.07580565302255518,-0.014884706349888761,0.10220537538024199,0.09537180590457257,-0.015463483003348112,-0.001321867560021945,-0.002428824514800548,0.13873504091271033,0.31649301696450477,-0.034341884774138305
-0.020943951023931952,0.02234021442552742,0.06422811647339133,9.1201845,-0.661948875,-3.170816833333333,-0.0021572997883881574,0.020803347455807853,0.07580565302255518,-0.014884706349888761,0.10220537538024199,0.09537180590457257,-0.025130597533075547,-0.0019855228567081753,-0.002488470536417691,-0.01242449355479112,-0.05580391245286194,-0.07507130314503035
0.029321531433504733,0.02652900463031381,0.06911503837897544,9.144701125,-0.5475379583333333,-3.023717083333333,-0.0021572997883881574,0.020803347455807853,0.07580565302255518,-0.014884706349888761,0.10220537538024199,0.09537180590457257,-0.022220338354321176,0.005273476692800784,-0.006015209935993492,-0.04093709919704471,-0.1994368448963252,0.05561988930686471
0.07400196028455958,0.0153588974175501,0.08098327729253688,9.226423208333333,-0.14709974999999997,-3.138128,-0.0021572997883881574,0.020803347455807853,0.07580565302255518,-0.014884706349888761,0.10220537538024199,0.09537180590457257,-0.0004852032749123115,-0.0021435497594164713,0.00020780615923219662,0.07728940248070697,-0.4898839284983259,0.0837608017660614
0.07539822368615504,0.02024581932313422,0.08098327729253688,9.07115125,0.83356525,-3.309744375,-0.0021572997883881574,0.020803347455807853,0.07580565302255518,-0.014884706349888761,0.10220537538024199,0.09537180590457257,0.018915473065616095,0.0030111089077741494,0.0012870504200360755,-0.041080200768748784,-0.338604712476516,0.006314840156101693
0.03769911184307752,0.013962634015954637,0.07819075048934597,9.152873333333332,1.5118585416666666,-3.3260887916666664,-0.0021572997883881574,0.020803347455807853,0.07580565302255518,-0.014884706349888761,0.10220537538024199,0.09537180590457257,0.03840007770819547,0.002766315646690987,-0.006347289079909776,-0.1800499314578871,-0.1379537254827146,0.1003053877856704
-0.039095375244672985,0.00767944870877505,0.09075712110370514,9.5124505,1.7897136249999999,-3.530394,-0.0021572997883881574,0.020803347455807853,0.07580565302255518,-0.014884706349888761,0.10220537538024199,0.09537180590457257,0.03256803459625865,-0.005643084309133714,0.0009091592436920476,0.1836566621594314,0.3610464910938413,-0.09977310168503344
-0.10471975511965977,0.01884955592153876,0.08936085770210968,9.144701125,1.0705592916666666,-3.334261,-0.0021572997883881574,0.020803347455807853,0.07580565302255518,-0.014884706349888761,0.10220537538024199,0.09537180590457257,0.008967556802990138,-0.001326921339722478,-0.000217036732225006,-0.09413188088779513,0.49624500138576894,-0.06710980523535552
-0.12217304763960307,0.021642082724729686,0.08936085770210968,9.332661916666666,0.08172208333333333,-3.2035056666666666,-0.0021572997883881574,0.020803347455807853,0.07580565302255518,-0.014884706349888761,0.10220537538024199,0.09537180590457257,-0.048552816321997525,-0.005504064760537089,0.009668076811257122,0.1723832440775557,-0.5469712935916885,-0.17004490410218306
-0.07539822368615504,0.0153588974175501,0.10192722831646883,9.242767624999999,-0.9561483749999999,-3.1054391666666663,-0.0021572997883881574,0.020803347455807853,0.07580565302255518,-0.014884706349888761,0.10220537538024199,0.09537180590457257,-0.03336584227818543,-0.008526485199092857,0.008457125072402524,0.061229294383652946,0.1645065563916468,-0.13246265877651725
-0.008377580409572781,0.032114058236695664,0.08517206749732328,9.1201845,-1.2830367083333332,-2.8439284999999996,-0.0021572997883881574,0.020803347455807853,0.07580565302255518,-0.014884706349888761,0.10220537538024199,0.09537180590457257,-0.035078348277873025,0.011560662660593515,0.0022984392135925527,-0.13930202968069608,-0.33010613801437577,0.1495380627688099
0.0614355896702004,0.009075712110370514,0.08028514559173915,9.398039583333333,-0.6210878333333334,-3.1463002083333333,-0.0021572997883881574,0.020803347455807853,0.07580565302255518,-0.014884706349888761,0.10220537538024199,0.09537180590457257,-0.01177778486216439,-0.004917082107443642,0.01274151882119895,0.0407012992605484,-0.3793363744220533,0.0594587582593777
0.08517206749732328,0.01884955592153876,0.05515240436302082,9.316317499999998,0.13892754166666665,-3.268883333333333,-0.0021572997883881574,0.020803347455807853,0.07580565302255518,-0.014884706349888761,0.10220537538024199,0.09537180590457257,0.0057020021137941,-0.008517050813111497,0.0023178092969755705,-0.041038304004331755,-0.32175128153371485,0.02686344705340662
0.07400196028455958,0.03630284844148206,0.05026548245743669,9.398039583333333,0.784532,-3.3260887916666664,-0.0021572997883881574,0.020803347455807853,0.07580565302255518,-0.014884706349888761,0.10220537538024199,0.09537180590457257,0.014517382345282579,0.005470263459468784,-0.001979356048774526,0.1672360231802341,-0.25213123232866835,-0.06288738454587593
0.04468042885105484,0.024434609527920613,0.05445427266222308,9.062979041666667,1.2912089166666665,-3.2035056666666666,-0.0021572997883881574,0.020803347455807853,0.07580565302255518,-0.014884706349888761,0.10220537538024199,0.09537180590457257,0.025065207829827896,-0.001640728536996188,-0.001702517519230572,-0.045191104019543724,0.050632576335624346,0.047489157104281504
-0.005585053606381855,0.027925268031909273,0.05794493116621174,9.152873333333332,1.1931424166666666,-3.3015721666666664,-0.0021572997883881574,0.020803347455807853,0.07580565302255518,-0.014884706349888761,0.10220537538024199,0.09537180590457257,0.016484405677073263,0.0016594416838625692,-0.012144981523803257,-0.036896690489941514,0.1363251895730158,-0.026133442316500274
-0.03839724354387525,0.024434609527920613,0.08237954069413235,9.226423208333333,0.9234595416666666,-3.2525389166666665,-0.0021572997883881574,0.020803347455807853,0.07580565302255518,-0.014884706349888761,0.10220537538024199,0.09537180590457257,0.011588163430085821,0.006050540751431584,0.000618022161797322,-0.06150230566934277,0.28334248669215284,0.022902863070382373
-0.0614355896702004,0.011868238913561441,0.08098327729253688,9.349006333333334,0.35957716666666667,-3.3015721666666664,-0.0021572997883881574,0.020803347455807853,0.07580565302255518,-0.014884706349888761,0.10220537538024199,0.09537180590457257,-0.0016069590724396119,-0.0069886090881597146,0.0009278800171314157,0.10600282527218086,0.07520982067568496,-0.07933944420111931
-0.05864306286700947,0.02583087292951608,0.07888888219014369,9.136528916666666,0.21247741666666667,-3.1463002083333333,-0.0021572997883881574,0.020803347455807853,0.07580565302255518,-0.014884706349888761,0.10220537538024199,0.09537180590457257,0.010146568483417112,-0.0037037353351236143,0.0029741021495901304,0.01325877049585029,-0.10067280171485057,-0.1395344166893983
-0.04677482395344803,0.013962634015954637,0.07260569688296412,9.471589458333332,-0.16344416666666667,-3.317916583333333,-0.0021572997883881574,0.020803347455807853,0.07580565302255518,-0.014884706349888761,0.10220537538024199,0.09537180590457257,-0.013333241560751805,-0.003953290783845375,0.005191740854718276,0.17153619728783462,0.12820227851461044,-0.16527484573015674
-0.02024581932313422,0.02234021442552742,0.06213372137099814,9.128356708333332,-0.416782625,-2.99102825,-0.0021572997883881574,0.020803347455807853,0.07580565302255518,-0.014884706349888761,0.10220537538024199,0.09537180590457257,-0.020785390482912496,-0.002200184333479435,0.0003575342386478169,-0.06966756502398366,0.04233047431660804,0.06379247095805031
0.021642082724729686,0.02652900463031381,0.0614355896702004,9.26728425,-0.4985047083333333,-3.1217835833333334,-0.0021572997883881574,0.020803347455807853,0.07580565302255518,-0.014884706349888761,0.10220537538024199,0.09537180590457257,-0.01366756811412144,0.005885913336617239,-0.0026909276818402016,0.012010363246217902,-0.16632448488239257,0.014703048062084813
0.048869219055841226,0.014660765716752367,0.06702064327658225,9.242767624999999,-0.16344416666666667,-3.1544724166666662,-0.0021572997883881574,0.020803347455807853,0.07580565302255518,-0.014884706349888761,0.10220537538024199,0.09537180590457257,-0.005543680349895624,-0.003694770798234491,-0.0023333708609640726,0.028363644053507327,-0.25652694812435484,-0.022221684177341636
0.060039326268604934,0.021642082724729686,0.07120943348136866,9.185562166666665,0.35140495833333335,-3.113611375,-0.0021572997883881574,0.020803347455807853,0.07580565302255518,-0.014884706349888761,0.10220537538024199,0.09537180590457257,0.0032853300821365852,0.004157348841209742,-0.005240928229325664,-0.04110436775971092,-0.19942523198331638,0.010439767815753145
0.05375614096142535,0.013264502315156905,0.08168140899333462,9.26728425,0.7518431666666666,-3.138128,-0.0021572997883881574,0.020803347455807853,0.07580565302255518,-0.014884706349888761,0.10220537538024199,0.09537180590457257,0.0165702350744084,0.0009671546227926392,0.0023209451003725766,-0.016543383148642354,-0.1258246609522171,0.12475390491709001
0.02024581932313422,0.01117010721276371,0.07749261878854824,9.299973083333333,1.0051816249999999,-3.391466458333333,-0.0021572997883881574,0.020803347455807853,0.07580565302255518,-0.014884706349888761,0.10220537538024199,0.09537180590457257,0.013432810771788066,-0.0062591421960437816,-0.0008730470879433475,0.016086390470311906,0.029632313113684458,-0.09156931608158407
-0.006981317007977318,0.023736477827122883,0.07888888219014369,9.26728425,0.9479761666666666,-3.211677875,-0.0021572997883881574,0.020803347455807853,0.07580565302255518,-0.014884706349888761,0.10220537538024199,0.09537180590457257,0.01766652853925467,-0.00019149417797822513,-0.005592012140193134,0.028388885185477143,0.1278702964135907,-0.0016989470942692696
-0.04258603374866164,0.023736477827122883,0.09005898940290741,9.210078791666666,0.6946377083333333,-3.211677875,-0.0021572997883881574,0.020803347455807853,0.07580565302255518,-0.014884706349888761,0.10220537538024199,0.09537180590457257,0.00857979574348181,-0.00027928633395793364,0.0038653674598574136,0.0285116564303556,0.18121274506536864,-0.04651514403068721
-0.05864306286700947,0.024434609527920613,0.08237954069413235,9.152873333333332,0.3350605416666666,-3.1217835833333334,-0.0021572997883881574,0.020803347455807853,0.07580565302255518,-0.014884706349888761,0.10220537538024199,0.09537180590457257,-0.00767706617289965,-0.006944419531162622,0.008797102942157733,0.02858691817138484,-0.28385582623654976,-0.11790066512377707
-0.04258603374866164,0.02234021442552742,0.0991347015132779,9.373522958333332,-0.20430520833333332,-3.1054391666666663,-0.0021572997883881574,0.020803347455807853,0.07580565302255518,-0.014884706349888761,0.10220537538024199,0.09537180590457257,-0.01602524894042604,-0.002618736659377495,0.0006514174279221942,0.08964928074887736,0.09482796152056187,0.00663969571093171
-0.01117010721276371,0.02722713633111154,0.09773843811168245,9.193734375,-0.392266,-3.1217835833333334,-0.0021572997883881574,0.020803347455807853,0.07580565302255518,-0.014884706349888761,0.10220537538024199,0.09537180590457257,-0.010483125341685478,0.006583920866560333,0.009728910394207169,0.13459543658589426,-0.11758953264475117,-0.02211762491649891
0.009773843811168246,0.013962634015954637,0.07819075048934597,8.9240515,-0.15527195833333335,-3.0809225416666663,-0.0021572997883881574,0.020803347455807853,0.07580565302255518,-0.014884706349888761,0.10220537538024199,0.09537180590457257,-0.011449368165699341,-0.0003482918911741759,0.004113535323250615,-0.2822093905077636,-0.08877324687925625,0.08811758165631672
0.032812189937493394,0.014660765716752367,0.06981317007977318,9.487933875,0.024516625,-3.260711125,-0.0021572997883881574,0.020803347455807853,0.07580565302255518,-0.014884706349888761,0.10220537538024199,0.09537180590457257,-0.004128047154446392,0.0004963331062561966,0.0038801481007246386,0.0855969458258181,-0.027453197572082595,-0.03041582486950575
0.041189770347066175,0.013264502315156905,0.06213372137099814,9.316317499999998,0.08172208333333333,-3.2035056666666666,-0.0021572997883881574,0.020803347455807853,0.07580565302255518,-0.014884706349888761,0.10220537538024199,0.09537180590457257,0.00302064207428598,0.0004335259398888725,0.005702908924547237,0.024300208979990797,-0.26833349558065306,0.047051053342028804
0.03560471674068433,0.012566370614359173,0.050963614158234416,9.26728425,0.6210878333333334,-3.3015721666666664,-0.0021572997883881574,0.020803347455807853,0.07580565302255518,-0.014884706349888761,0.10220537538024199,0.09537180590457257,0.010260564629557866,-0.005717025363370299,-0.007723262745289433,-0.057567992082568575,-0.19483126281361285,-0.06722268079399733
0.014660765716752367,0.023736477827122883,0.06632251157578452,9.381695166666667,1.0133538333333332,-3.170816833333333,-0.0021572997883881574,0.020803347455807853,0.07580565302255518,-0.014884706349888761,0.10220537538024199,0.09537180590457257,0.013883343182023753,-0.0037928224649249834,-0.004250993829521297,0.12656006846738596,0.12787575299470164,0.055758962293148265
-0.013264502315156905,0.031415926535897934,0.0747000919853573,9.128356708333332,0.7600153749999999,-3.2852277500000002,-0.0021572997883881574,0.020803347455807853,0.07580565302255518,-0.014884706349888761,0.10220537538024199,0.09537180590457257,0.0034867068146218045,0.006636598066746216,-0.0002927985474264506,-0.17192417068139695,0.3487866905337593,-0.08744534228912669
-0.02024581932313422,0.017453292519943295,0.07539822368615504,9.471589458333332,0.06537766666666667,-3.113611375,-0.0021572997883881574,0.020803347455807853,0.07580565302255518,-0.014884706349888761,0.10220537538024199,0.09537180590457257,-0.0027354833676518546,-0.0077129467508712255,-0.0037031011425104512,0.15512146349339126,-0.060062086696784804,0.03932407792545614
-0.014660765716752367,0.033510321638291124,0.08307767239493008,9.161045541666667,0.18796079166666665,-3.195333458333333,-0.0021572997883881574,0.020803347455807853,0.07580565302255518,-0.014884706349888761,0.10220537538024199,0.09537180590457257,0.014713398763245839,-0.002114944249212276,0.01124337245124421,0.1572120506897126,-0.5676871211871006,-0.2171770031191175
-0.01884955592153876,0.016057029118347832,0.06213372137099814,9.07115125,0.32688833333333334,-3.178989041666666,-0.0021572997883881574,0.020803347455807853,0.07580565302255518,-0.014884706349888761,0.10220537538024199,0.09537180590457257,0.0003652176627122695,0.002716017571762911,-0.00272969760001812,-0.18815913804998644,-0.07620585235218662,0.05538417285010831
-0.019547687622336492,0.010471975511965976,0.06771877497737998,9.447072833333333,0.48216029166666663,-3.293399958333333,-0.0021572997883881574,0.020803347455807853,0.07580565302255518,-0.014884706349888761,0.10220537538024199,0.09537180590457257,0.00665428553500145,-0.010396934265459132,-0.0019221755419433577,0.16719558984926472,-0.10868957555731563,0.0025172192337511294
-0.032812189937493394,0.031415926535897934,0.07190756518216637,9.112012291666666,0.7028099166666667,-3.3015721666666664,-0.0021572997883881574,0.020803347455807853,0.07580565302255518,-0.014884706349888761,0.10220537538024199,0.09537180590457257,0.006504944766371726,0.01246368089860791,-0.006354844637156375,-0.041025780052408735,0.22610859370327713,-0.10393455678897842
-0.046076692252650306,0.006283185307179587,0.08447393579652555,9.193734375,0.2533384583333333,-3.0972669583333334,-0.0021572997883881574,0.020803347455807853,0.07580565302255518,-0.014884706349888761,0.10220537538024199,0.09537180590457257,-0.0038722480311049034,-0.008795760318370965,-0.003048597266669204,-0.09428572250692703,0.1605850087192211,0.10046026315475348
-0.03769911184307752,0.023736477827122883,0.09075712110370514,9.381695166666667,-0.06537766666666667,-3.3015721666666664,-0.0021572997883881574,0.020803347455807853,0.07580565302255518,-0.014884706349888761,0.10220537538024199,0.09537180590457257,-0.020085912389515962,0.003621674088583741,-0.00036813975901698313,0.2040168769035091,0.3769336352980346,-0.20598165682803543
0.0020943951023931952,0.016057029118347832,0.09145525280450287,8.97308475,-0.8172208333333333,-2.8929617499999996,-0.0021572997883881574,0.020803347455807853,0.07580565302255518,-0.014884706349888761,0.10220537538024199,0.09537180590457257,-0.025786294432275137,0.00742956930974226,0.011761227646959001,-0.318888701523657,0.1070529438217823,0.1778647852930568
0.05375614096142535,0.0006981317007977319,0.06771877497737998,9.610517,-1.0296982499999998,-3.2525389166666665,-0.0021572997883881574,0.020803347455807853,0.07580565302255518,-0.014884706349888761,0.10220537538024199,0.09537180590457257,-0.023055211898227176,-0.015829847712738192,0.002201843711564519,0.13443074843742303,-0.5058488527682111,-0.038524789120902236
0.09983283321407566,0.032812189937493394,0.0635299847725936,9.340834124999999,-0.016344416666666667,-3.178989041666666,-0.0021572997883881574,0.020803347455807853,0.07580565302255518,-0.014884706349888761,0.10220537538024199,0.09537180590457257,0.0033882806256437417,0.00863455794840457,0.006512936062015178,0.04067302128633796,-0.7061399315728933,0.10023842411474587
0.09285151620609833,0.0153588974175501,0.05026548245743669,9.259112041666667,1.3974476249999999,-3.3832942499999996,-0.0021572997883881574,0.020803347455807853,0.07580565302255518,-0.014884706349888761,0.10220537538024199,0.09537180590457257,0.02574029034974199,-0.010941272628905136,-0.0023738882366935886,-0.03699041572669521,-0.20711937618944407,-0.08772592873169328
0.041887902047863905,0.03700098014227979,0.05515240436302082,9.332661916666666,1.8142302499999998,-3.211677875,-0.0021572997883881574,0.020803347455807853,0.07580565302255518,-0.014884706349888761,0.10220537538024199,0.09537180590457257,0.04552196801068275,0.0003264996208892861,-0.004116304012458265,0.4570796210052649,0.02667452244532902,-0.18050258185225618
-0.04677482395344803,0.016057029118347832,0.08936085770210968,8.744262916666667,1.7570247916666666,-3.2361945,-0.0021572997883881574,0.020803347455807853,0.07580565302255518,-0.014884706349888761,0.10220537538024199,0.09537180590457257,0.02616657697993046,-0.0009455217862269978,0.010778238535032158,-0.44153709277929265,0.5616320911291619,0.05541134739493807
-0.0991347015132779,0.017453292519943295,0.06771877497737998,9.626861416666666,0.63743225,-3.3506054166666663,-0.0021572997883881574,0.020803347455807853,0.07580565302255518,-0.014884706349888761,0.10220537538024199,0.09537180590457257,-0.005815396522842253,-0.0008629674609825276,-0.019556288426725854,0.3797303026290574,0.3651970484346258,-0.11619892056985562
-0.0879645943005142,0.01884955592153876,0.10681415022205297,8.866846041666665,-0.08989429166666667,-3.1217835833333334,-0.0021572997883881574,0.020803347455807853,0.07580565302255518,-0.014884706349888761,0.10220537538024199,0.09537180590457257,-0.012086839763457964,0.002776642717375428,0.017859398610716053,-0.37615464446734204,0.2835464459223497,0.05941036773668688
-0.0635299847725936,0.013962634015954637,0.07051130178057091,9.618689208333333,-0.6537766666666667,-3.2443667083333327,-0.0021572997883881574,0.020803347455807853,0.07580565302255518,-0.014884706349888761,0.10220537538024199,0.09537180590457257,-0.03004918735063575,-0.00852982054443999,-0.009474402923081894,0.0856301723094808,-0.047698817584008964,0.002354997006055913
-0.003490658503988659,0.030019663134302467,0.09005898940290741,9.447072833333333,-0.5557101666666666,-3.2525389166666665,-0.0021572997883881574,0.020803347455807853,0.07580565302255518,-0.014884706349888761,0.10220537538024199,0.09537180590457257,-0.011465485590806514,0.0016048354053725157,0.017223127423795552,0.13056683659414448,-0.19488189315923835,-0.038212736178783964
0.019547687622336492,0.02722713633111154,0.05515240436302082,9.185562166666665,-0.16344416666666667,-3.178989041666666,-0.0021572997883881574,0.020803347455807853,0.07580565302255518,-0.014884706349888761,0.10220537538024199,0.09537180590457257,-0.014947970773040367,-0.0018975609601247618,-0.007561509160680687,-0.21264892434870247,-0.0928509237607046,0.08840013434773072
0.04956735075663895,0.0307177948351002,0.07051130178057091,9.610517,0.024516625,-3.358777625,-0.0021572997883881574,0.020803347455807853,0.07580565302255518,-0.014884706349888761,0.10220537538024199,0.09537180590457257,-0.0001533729630401934,-0.004180708660224074,0.0035385624121890055,0.33088264673478596,-0.10940468394217336,-0.12388627168748427
0.05026548245743669,0.039095375244672985,0.0635299847725936,8.948568125,0.24516625,-3.113611375,-0.0021572997883881574,0.020803347455807853,0.07580565302255518,-0.014884706349888761,0.10220537538024199,0.09537180590457257,0.004114092157060569,0.0051745090831010546,-0.005290715334678904,-0.06962270787853046,-0.32577063564384057,0.018996728084527986
0.041887902047863905,0.028623399732707,0.07400196028455958,9.087495666666666,0.8989429166666666,-3.1544724166666662,-0.0021572997883881574,0.020803347455807853,0.07580565302255518,-0.014884706349888761,0.10220537538024199,0.09537180590457257,0.012680549201127085,0.004100294529823049,-0.0038641160884596015,-0.15541342683513976,0.045690361196445754,0.039238436699638536
0.016057029118347832,0.02024581932313422,0.08168140899333462,9.398039583333333,0.809048625,-3.2361945,-0.0021572997883881574,0.020803347455807853,0.07580565302255518,-0.014884706349888761,0.10220537538024199,0.09537180590457257,0.018272689809995808,-0.014664535958072017,0.0106439169459257,0.5124366269557088,-1.1277953969341081,-0.15285232170530394
-0.010471975511965976,0.029321531433504733,0.08866272600131193,9.07115125,0.8580818749999999,-3.3996386666666667,-0.0021572997883881574,0.020803347455807853,0.07580565302255518,-0.014884706349888761,0.10220537538024199,0.09537180590457257,0.015546367924737816,-9.661059257613409e-05,0.004528468529738617,-0.1430389792359246,0.050251211896829476,-0.07494937550990285
-0.041189770347066175,0.029321531433504733,0.08028514559173915,9.357178541666666,0.7600153749999999,-3.2525389166666665,-0.0021572997883881574,0.020803347455807853,0.07580565302255518,-0.014884706349888761,0.10220537538024199,0.09537180590457257,0.008491748418983758,-0.002752413652607148,-0.00039166320689232504,0.05293111535352025,0.06275032028460541,-0.02571195660367956
-0.05864306286700947,0.03490658503988659,0.08098327729253688,9.250939833333334,0.63743225,-3.2035056666666666,-0.0021572997883881574,0.020803347455807853,0.07580565302255518,-0.014884706349888761,0.10220537538024199,0.09537180590457257,-0.0006715632818684731,0.0021301743668556182,-0.00015721446878555966,0.14294139788917273,0.35694882840823716,-0.05870904604686373
-0.056548667764616284,0.0307177948351002,0.08098327729253688,8.964912541666667,-0.07354987499999999,-3.0890947499999997,-0.0021572997883881574,0.020803347455807853,0.07580565302255518,-0.014884706349888761,0.10220537538024199,0.09537180590457257,-0.016887252374492217,0.0006954169070547846,-0.004817199000726164,-0.28199689969683606,0.15244272782382776,0.06799479176089716
-0.023038346126325153,0.028623399732707,0.09075712110370514,9.528794916666666,-0.3759215833333333,-3.2280222916666665,-0.0021572997883881574,0.020803347455807853,0.07580565302255518,-0.014884706349888761,0.10220537538024199,0.09537180590457257,-0.015276353951720055,-0.00727972091350102,0.002097407889214808,0.2326732733490984,0.07863860577077193,-0.1158143242717024
0.006981317007977318,0.04328416544945937,0.08656833089891874,9.062979041666667,-0.5311935416666667,-2.999200458333333,-0.0021572997883881574,0.020803347455807853,0.07580565302255518,-0.014884706349888761,0.10220537538024199,0.09537180590457257,-0.01215071487215962,0.011384381998184609,0.0037323165132545017,0.008140231057025653,-0.3137689035816859,0.010800599230563014
0.032114058236695664,0.02024581932313422,0.07888888219014369,9.046634625,0.0980665,-3.023717083333333,-0.0021572997883881574,0.020803347455807853,0.07580565302255518,-0.014884706349888761,0.10220537538024199,0.09537180590457257,-0.00478370421879094,0.00220785030323491,0.0020593028798964116,-0.13105795942396548,-0.05211801074516154,0.02282940787253035
0.041189770347066175,0.016057029118347832,0.0747000919853573,9.308145291666667,0.20430520833333332,-3.0727503333333335,-0.0021572997883881574,0.020803347455807853,0.07580565302255518,-0.014884706349888761,0.10220537538024199,0.09537180590457257,0.006407979682901708,-1.8566831367495732e-05,0.007854507232689783,0.08145057979121323,-0.2032360282476152,0.11253575573110028
0.027925268031909273,0.016057029118347832,0.059341194567807204,9.144701125,0.612915625,-3.3015721666666664,-0.0021572997883881574,0.020803347455807853,0.07580565302255518,-0.014884706349888761,0.10220537538024199,0.09537180590457257,0.007507522098106656,0.005288445544871115,0.0006533695519753448,-0.13107872543547516,-0.07638777518763813,-0.01816942215395685
0.013264502315156905,0.005585053606381855,0.05794493116621174,9.406211791666665,0.7681875833333334,-3.268883333333333,-0.0021572997883881574,0.020803347455807853,0.07580565302255518,-0.014884706349888761,0.10220537538024199,0.09537180590457257,0.009749602055298064,-0.024066508577769385,-0.0044055698928481294,0.3938082372140368,-0.7459619701870711,-0.179051028379123
-0.006981317007977318,0.025132741228718346,0.06911503837897544,9.210078791666666,0.8662540833333333,-3.219850083333333,-0.0021572997883881574,0.020803347455807853,0.07580565302255518,-0.014884706349888761,0.10220537538024199,0.09537180590457257,0.011760159894979558,0.0021790488172259708,-0.005131465138360576,0.06916563605263658,0.23008005285277924,-0.07106974944659973
-0.030019663134302467,0.02024581932313422,0.07888888219014369,9.07115125,0.40861041666666664,-3.0809225416666663,-0.0021572997883881574,0.020803347455807853,0.07580565302255518,-0.014884706349888761,0.10220537538024199,0.09537180590457257,0.0008479097025635702,0.0004991139172986232,-0.006424732485619,-0.09805726038540935,0.06249726021801168,0.06789011786066526
-0.032114058236695664,0.019547687622336492,0.09215338450530061,9.26728425,0.2860272916666666,-3.219850083333333,-0.0021572997883881574,0.020803347455807853,0.07580565302255518,-0.014884706349888761,0.10220537538024199,0.09537180590457257,-0.001161469278188717,-0.006828214269166707,-0.003622518990955086,-0.053463064457245205,0.05410462496893486,-0.03840532730819079
-0.030019663134302467,0.032812189937493394,0.0991347015132779,9.373522958333332,0.17978858333333333,-3.1463002083333333,-0.0021572997883881574,0.020803347455807853,0.07580565302255518,-0.014884706349888761,0.10220537538024199,0.09537180590457257,-0.0025468738014314,0.008429591647575585,0.003929563902213789,0.18787420060813892,0.025513782176455776,-0.00975818036215656
-0.024434609527920613,0.016057029118347832,0.09145525280450287,8.997601374999999,0.13075533333333333,-3.1299557916666663,-0.0021572997883881574,0.020803347455807853,0.07580565302255518,-0.014884706349888761,0.10220537538024199,0.09537180590457257,-0.00308502516597729,0.004433445261223975,0.006770462602152992,-0.2249847187109581,0.0748002903475644,0.03490703492105394
-0.01815142422074103,0.006981317007977318,0.07749261878854824,9.447072833333333,-0.016344416666666667,-3.2035056666666666,-0.0021572997883881574,0.020803347455807853,0.07580565302255518,-0.014884706349888761,0.10220537538024199,0.09537180590457257,-0.010027556096183275,-0.005739418536831649,0.008499893313015087,0.13861058203972992,0.12813743035137312,-0.026360519275716712
0.0013962634015954637,0.01815142422074103,0.06073745796940267,9.16921775,-0.269682875,-3.1544724166666662,-0.0021572997883881574,0.020803347455807853,0.07580565302255518,-0.014884706349888761,0.10220537538024199,0.09537180590457257,-0.013292861766035427,0.0016152846608893966,-0.0002401025618297144,-0.12286884606904541,-0.12136099098032414,0.05553356378112481
0.027925268031909273,0.0153588974175501,0.0614355896702004,9.414383999999998,-0.024516625,-3.268883333333333,-0.0021572997883881574,0.020803347455807853,0.07580565302255518,-0.014884706349888761,0.10220537538024199,0.09537180590457257,-0.00446975632061173,-0.0018439205174860234,-0.004939031422526142,0.15093616367137225,-0.20316165604812797,-0.1202661659895492
0.03769911184307752,0.01884955592153876,0.07120943348136866,9.112012291666666,0.3840937916666667,-3.0318892916666664,-0.0021572997883881574,0.020803347455807853,0.07580565302255518,-0.014884706349888761,0.10220537538024199,0.09537180590457257,0.0068505903391538345,0.0004445197668381158,0.0036377448871811316,-0.15546498709811074,-0.060170516068735365,0.18209126619734303
0.023736477827122883,0.017453292519943295,0.0635299847725936,9.422556208333333,0.5066769166666666,-3.3996386666666667,-0.0021572997883881574,0.020803347455807853,0.07580565302255518,-0.014884706349888761,0.10220537538024199,0.09537180590457257,0.009221109409325485,-0.012513510248909298,0.0059905018249024646,0.32851228518456177,-0.8545251129348836,-0.3117154517762777
0.01884955592153876,0.024434609527920613,0.07819075048934597,9.36535075,0.6701210833333332,-3.268883333333333,-0.0021572997883881574,0.020803347455807853,0.07580565302255518,-0.014884706349888761,0.10220537538024199,0.09537180590457257,0.008503505561786863,-0.0032485015014541677,-0.004736330356560907,-0.03676152601340049,-0.10122814326972568,0.018937312140856387
0.0013962634015954637,0.031415926535897934,0.0879645943005142,9.438900625,0.8744262916666666,-3.309744375,-0.0021572997883881574,0.020803347455807853,0.07580565302255518,-0.014884706349888761,0.10220537538024199,0.09537180590457257,0.01946931144098457,-0.002577346566665142,0.0018958761148251352,0.2817464422467687,0.01739082753244581,-0.11564396614863993
-0.03700098014227979,0.03560471674068433,0.08377580409572781,8.87501825,0.8417374583333332,-3.0809225416666663,-0.0021572997883881574,0.020803347455807853,0.07580565302255518,-0.014884706349888761,0.10220537538024199,0.09537180590457257,0.009999867438770293,0.012290988982796715,0.0029932660579578977,-0.17988192933774153,0.2590227732536908,0.03520513557168394
-0.057246799465414,0.01117010721276371,0.07819075048934597,9.234595416666666,0.32688833333333334,-3.1544724166666662,-0.0021572997883881574,0.020803347455807853,0.07580565302255518,-0.014884706349888761,0.10220537538024199,0.09537180590457257,-0.010929326072232124,-0.005856588883257037,-0.0013609750097582209,-0.10255663818584274,0.24657654591864128,0.010359002799235283
-0.03560471674068433,0.023038346126325153,0.08028514559173915,9.438900625,-0.16344416666666667,-3.178989041666666,-0.0021572997883881574,0.020803347455807853,0.07580565302255518,-0.014884706349888761,0.10220537538024199,0.09537180590457257,-0.015174640552219525,0.0016005315069754292,-0.0030623642870107695,0.24511086571797866,0.0298738398884243,-0.026228127034050683
-0.004886921905584123,0.019547687622336492,0.08656833089891874,8.948568125,-0.220649625,-3.1299557916666663,-0.0021572997883881574,0.020803347455807853,0.07580565302255518,-0.014884706349888761,0.10220537538024199,0.09537180590457257,-0.010563528120779132,0.0042660633775142886,0.0044304827751715375,-0.20873635072389035,-0.1215722375282658,-0.022161072510636478
0.016057029118347832,0.01117010721276371,0.07819075048934597,9.36535075,0.024516625,-3.0890947499999997,-0.0021572997883881574,0.020803347455807853,0.07580565302255518,-0.014884706349888761,0.10220537538024199,0.09537180590457257,-0.0032868192606961854,-0.005548860108285783,0.004293415285770303,-0.016585969310978742,-0.0645185475339822,0.08819679597291678
0.023038346126325153,0.021642082724729686,0.06911503837897544,9.398039583333333,0.15527195833333335,-3.268883333333333,-0.0021572997883881574,0.020803347455807853,0.07580565302255518,-0.014884706349888761,0.10220537538024199,0.09537180590457257,-0.004410326406783544,-0.005089880739959982,0.000150095136454886,-0.008364300443888884,-0.10098577511961027,0.01885377994567926
0.031415926535897934,0.032114058236695664,0.06911503837897544,9.414383999999998,0.35957716666666667,-3.309744375,-0.0021572997883881574,0.020803347455807853,0.07580565302255518,-0.014884706349888761,0.10220537538024199,0.09537180590457257,0.0031424341168591143,-0.0012393791951208046,-0.004175208509684295,0.057124952305193884,-0.08868752965662846,-0.025923914423061238
0.025132741228718346,0.03420845333908886,0.07749261878854824,9.299973083333333,0.53936575,-3.260711125,-0.0021572997883881574,0.020803347455807853,0.07580565302255518,-0.014884706349888761,0.10220537538024199,0.09537180590457257,0.006668093233967993,-0.00578122857190417,0.014632466188970196,0.27556557649245084,-0.7614021968021861,-0.2583346879968859
0.0,0.032114058236695664,0.06422811647339133,9.013945791666666,0.8662540833333333,-3.0318892916666664,-0.0021572997883881574,0.020803347455807853,0.07580565302255518,-0.014884706349888761,0.10220537538024199,0.09537180590457257,0.006380712399573442,0.009543149394025298,-0.011018003895155894,-0.012338531808034502,0.13199650972003207,0.0514324243630106
-0.012566370614359173,0.013264502315156905,0.08656833089891874,9.038462416666666,0.6047434166666666,-3.138128,-0.0021572997883881574,0.020803347455807853,0.07580565302255518,-0.014884706349888761,0.10220537538024199,0.09537180590457257,0.0017629327180457516,-0.001538809052161234,0.0013496728998940244,-0.20869279061269266,0.19735670445456244,0.03911582024062853
-0.016057029118347832,0.016057029118347832,0.08377580409572781,9.455245041666666,0.21247741666666667,-3.219850083333333,-0.0021572997883881574,0.020803347455807853,0.07580565302255518,-0.014884706349888761,0.10220537538024199,0.09537180590457257,0.00015898684571051715,0.003970885311222805,-0.0037219913147520977,0.2285052578664536,-0.07655528409835476,0.010363924557330869
-0.016755160819145562,0.008377580409572781,0.09075712110370514,8.997601374999999,0.367749375,-3.2443667083333327,-0.0021572997883881574,0.020803347455807853,0.07580565302255518,-0.014884706349888761,0.10220537538024199,0.09537180590457257,0.0030448626456811454,0.0008545422612050823,0.00984061010114845,-0.19230383068772336,0.05436070189462584,0.002206281136201076
-0.02234021442552742,0.006283185307179587,0.07120943348136866,9.381695166666667,0.26151066666666667,-3.2525389166666665,-0.0021572997883881574,0.020803347455807853,0.07580565302255518,-0.014884706349888761,0.10220537538024199,0.09537180590457257,-0.005315739956769377,-0.008052192813746603,-0.006034410539562902,0.06506346990301708,-0.01913117906966207,-0.03462788400869749
-0.011868238913561441,0.02234021442552742,0.08377580409572781,9.250939833333334,0.3023717083333333,-3.18716125,-0.0021572997883881574,0.020803347455807853,0.07580565302255518,-0.014884706349888761,0.10220537538024199,0.09537180590457257,-0.00251973074464919,0.003884240315700842,0.009431916275514068,0.03655296779831905,0.19739594703069854,-0.05469794357622541
-0.006981317007977318,0.014660765716752367,0.06422811647339133,9.177389958333332,-0.08989429166666667,-3.0809225416666663,-0.0021572997883881574,0.020803347455807853,0.07580565302255518,-0.014884706349888761,0.10220537538024199,0.09537180590457257,-0.009834020074715722,0.0002670147475882009,-0.002705522070124127,-0.15146675952516536,-0.08843516870176558,0.059372949372462965
0.012566370614359173,0.013962634015954637,0.06981317007977318,9.479761666666667,0.08989429166666667,-3.2035056666666666,-0.0021572997883881574,0.020803347455807853,0.07580565302255518,-0.014884706349888761,0.10220537538024199,0.09537180590457257,-0.002970656372446711,-0.004146349462575587,0.0014242047252355878,0.1754721085386087,-0.015138746640525986,-0.04257197436792421
0.01884955592153876,0.021642082724729686,0.06702064327658225,9.128356708333332,0.122583125,-3.1217835833333334,-0.0021572997883881574,0.020803347455807853,0.07580565302255518,-0.014884706349888761,0.10220537538024199,0.09537180590457257,-0.005337643856931962,0.003493983259388043,-0.009978016538921962,0.007926339356259084,-0.18707680479245717,0.04310485717960272
0.029321531433504733,0.014660765716752367,0.08726646259971647,9.112012291666666,0.4985047083333333,-3.211677875,-0.0021572997883881574,0.020803347455807853,0.07580565302255518,-0.014884706349888761,0.10220537538024199,0.09537180590457257,0.009058328444342406,-0.020639384884618344,0.017088902499514776,0.1813976087911824,-0.7426446096368451,-0.26927826000640204
0.019547687622336492,0.020943951023931952,0.08866272600131193,9.414383999999998,0.4903325,-3.3015721666666664,-0.0021572997883881574,0.020803347455807853,0.07580565302255518,-0.014884706349888761,0.10220537538024199,0.09537180590457257,0.011061900105173288,-0.0024397088886644047,0.0018200886183857628,0.11412088553629339,-0.1708811716513964,-0.038303639456013755
-0.0020943951023931952,0.02583087292951608,0.08447393579652555,9.185562166666665,0.83356525,-3.2280222916666665,-0.0021572997883881574,0.020803347455807853,0.07580565302255518,-0.014884706349888761,0.10220537538024199,0.09537180590457257,0.009967883950871564,0.0041217840516486505,0.0022139445742794333,-0.06148838249392263,0.19333841326240794,0.0146601983136566
-0.021642082724729686,0.017453292519943295,0.08028514559173915,9.308145291666667,0.4494714583333333,-3.260711125,-0.0021572997883881574,0.020803347455807853,0.07580565302255518,-0.014884706349888761,0.10220537538024199,0.09537180590457257,0.0033742582993913617,-0.0021160087710438134,0.009140490216407572,0.10605827859247488,0.07908762532564263,-0.042430706914518064
-0.028623399732707,0.021642082724729686,0.06213372137099814,9.095667875,0.29419949999999995,-3.178989041666666,-0.0021572997883881574,0.020803347455807853,0.07580565302255518,-0.014884706349888761,0.10220537538024199,0.09537180590457257,-0.0018356542771632975,0.008163929283699044,-0.002008653059474672,0.04066016447753367,0.20610298534560823,-0.022372217321478007
-0.025132741228718346,0.004886921905584123,0.06632251157578452,9.013945791666666,-0.11441091666666667,-3.138128,-0.0021572997883881574,0.020803347455807853,0.07580565302255518,-0.014884706349888761,0.10220537538024199,0.09537180590457257,-0.008081283578922311,-0.006042907942340869,-0.004032514875637087,-0.2495336112687115,-0.06817178592735801,0.10431772994264298
-0.009075712110370514,0.016755160819145562,0.07400196028455958,9.5124505,0.024516625,-3.3506054166666663,-0.0021572997883881574,0.020803347455807853,0.07580565302255518,-0.014884706349888761,0.10220537538024199,0.09537180590457257,-0.007561706249890448,-0.006317979929105929,-0.00529251712511246,0.0855181600851282,0.03796711947563844,-0.08331410722132003
0.006283185307179587,0.029321531433504733,0.08517206749732328,9.340834124999999,-0.04903325,-3.18716125,-0.0021572997883881574,0.020803347455807853,0.07580565302255518,-0.014884706349888761,0.10220537538024199,0.09537180590457257,-0.005292667153249753,0.003046120430660908,0.0016512090636963564,0.13887944292827653,-0.2073939645914094,-0.0016170893445663836
0.016755160819145562,0.023038346126325153,0.08168140899333462,9.062979041666667,0.367749375,-3.18716125,-0.0021572997883881574,0.020803347455807853,0.07580565302255518,-0.014884706349888761,0.10220537538024199,0.09537180590457257,-0.0006166095029050469,-0.0018047821751284027,-0.0010221016573101907,-0.1678139611446995,-0.04416046992677642,0.010773479265092239
0.01815142422074103,0.02652900463031381,0.08377580409572781,9.398039583333333,0.45764366666666667,-3.211677875,-0.0021572997883881574,0.020803347455807853,0.07580565302255518,-0.014884706349888761,0.10220537538024199,0.09537180590457257,0.004191653550727469,-0.004206425448426713,0.0027265423306579175,-0.012319858523490036,0.017337208481117056,-0.009535585024465524
0.009773843811168246,0.03560471674068433,0.07819075048934597,9.422556208333333,0.42495483333333334,-3.195333458333333,-0.0021572997883881574,0.020803347455807853,0.07580565302255518,-0.014884706349888761,0.10220537538024199,0.09537180590457257,-0.005225715195635972,-0.0025735718001295995,0.008087064119522293,0.3862037642579483,-0.6638680979562928,-0.25912409631530653
0.003490658503988659,0.02652900463031381,0.07190756518216637,9.062979041666667,0.44129925,-3.0809225416666663,-0.0021572997883881574,0.020803347455807853,0.07580565302255518,-0.014884706349888761,0.10220537538024199,0.09537180590457257,0.005291301499293635,0.007346701409748243,0.00016959463353583186,0.028329310748904723,0.038054607110113575,0.01465970172856267
-0.006981317007977318,0.011868238913561441,0.07190756518216637,9.005773583333333,0.367749375,-3.113611375,-0.0021572997883881574,0.020803347455807853,0.07580565302255518,-0.014884706349888761,0.10220537538024199,0.09537180590457257,0.003098294861664991,0.00040292662389927123,-0.0030364321508960478,-0.1842417259882694,-0.05998759152093663,0.11256856690133493
-0.013264502315156905,0.01117010721276371,0.07749261878854824,9.373522958333332,0.4903325,-3.342433208333333,-0.0021572997883881574,0.020803347455807853,0.07580565302255518,-0.014884706349888761,0.10220537538024199,0.09537180590457257,0.0008322406441097922,-0.002518264767121155,-0.006197551086489235,0.012137255739311336,0.08700330635519625,-0.022225692989678393
-0.014660765716752367,0.016057029118347832,0.09005898940290741,9.349006333333334,0.318716125,-3.3015721666666664,-0.0021572997883881574,0.020803347455807853,0.07580565302255518,-0.014884706349888761,0.10220537538024199,0.09537180590457257,-0.0011676371067034297,-0.00441023294854411,0.006113774867231948,-0.06559575257686805,0.03376903704302768,-0.0261836866196988
-0.012566370614359173,0.024434609527920613,0.07749261878854824,9.479761666666667,0.2533384583333333,-3.2525389166666665,-0.0021572997883881574,0.020803347455807853,0.07580565302255518,-0.014884706349888761,0.10220537538024199,0.09537180590457257,-0.0012992894279147832,-0.00042803661514325526,0.00017132130590883626,0.2571176378217174,-0.0027553275681217143,-0.0669198973006521
-0.009773843811168246,0.025132741228718346,0.07749261878854824,8.964912541666667,0.26151066666666667,-3.1217835833333334,-0.0021572997883881574,0.020803347455807853,0.07580565302255518,-0.014884706349888761,0.10220537538024199,0.09537180590457257,-0.0032989816976401794,0.0024143063826880286,0.0027837362031659023,-0.24540856932879135,-0.03144544927355784,0.07589578095206691
-0.003490658503988659,0.02024581932313422,0.07190756518216637,9.455245041666666,0.32688833333333334,-3.2770555416666665,-0.0021572997883881574,0.020803347455807853,0.07580565302255518,-0.014884706349888761,0.10220537538024199,0.09537180590457257,-0.0032395973122859322,-0.007215966909138209,0.0020607442260942017,0.14293300577506132,0.09115980925142937,-0.09554369135655628
0.0027925268031909274,0.03490658503988659,0.06771877497737998,9.16921775,0.14709974999999997,-3.0890947499999997,-0.0021572997883881574,0.020803347455807853,0.07580565302255518,-0.014884706349888761,0.10220537538024199,0.09537180590457257,-0.0012877427441001354,0.012720153522205922,-0.0011265038517064589,0.0938275202393986,-0.03943358442331943,0.002512482381058194
0.005585053606381855,0.009773843811168246,0.06981317007977318,8.981256958333333,0.22882183333333334,-3.0972669583333334,-0.0021572997883881574,0.020803347455807853,0.07580565302255518,-0.014884706349888761,0.10220537538024199,0.09537180590457257,-0.004056499923416168,0.0007912867176893786,-0.004263449469611949,-0.15970207939467143,0.009231248000820211,0.010262780612344702
0.013962634015954637,0.00767944870877505,0.07888888219014369,9.299973083333333,0.21247741666666667,-3.1217835833333334,-0.0021572997883881574,0.020803347455807853,0.07580565302255518,-0.014884706349888761,0.10220537538024199,0.09537180590457257,0.002981357132000094,-0.022595295074283074,0.011124968768838471,0.30702427210939687,-0.7615452099685871,-0.23666024467897384
0.009075712110370514,0.013962634015954637,0.08168140899333462,9.259112041666667,0.42495483333333334,-3.2770555416666665,-0.0021572997883881574,0.020803347455807853,0.07580565302255518,-0.014884706349888761,0.10220537538024199,0.09537180590457257,0.005448230338742575,0.003115636126505814,0.00039977663271268,-0.03705157039973999,-0.047957682842376684,-0.042714349185817534
-0.0020943951023931952,0.00767944870877505,0.08028514559173915,9.332661916666666,0.5230213333333333,-3.195333458333333,-0.0021572997883881574,0.020803347455807853,0.07580565302255518,-0.014884706349888761,0.10220537538024199,0.09537180590457257,0.004234624699215783,-0.003186161736003743,0.003773476000884426,-0.06565106374782562,0.07896733133454527,0.06757218921358486
-0.010471975511965976,0.013962634015954637,0.07330382858376185,9.46341725,0.367749375,-3.334261,-0.0021572997883881574,0.020803347455807853,0.07580565302255518,-0.014884706349888761,0.10220537538024199,0.09537180590457257,-0.0010948272146212564,-0.008032746089841608,-0.004677756408137139,0.09370042124826299,-0.02746480407143336,-0.08732285113418979
-0.008377580409572781,0.030019663134302467,0.08237954069413235,9.275456458333332,0.42495483333333334,-3.162644625,-0.0021572997883881574,0.020803347455807853,0.07580565302255518,-0.014884706349888761,0.10220537538024199,0.09537180590457257,0.0035011189251070375,0.0037379494958476923,0.003669471423865813,0.04890699675904437,0.11143211472198272,0.02288432310742556
-0.0153588974175501,0.02234021442552742,0.07539822368615504,9.177389958333332,0.20430520833333332,-3.211677875,-0.0021572997883881574,0.020803347455807853,0.07580565302255518,-0.014884706349888761,0.10220537538024199,0.09537180590457257,-0.0027825222169014074,-0.000713403472932159,0.0013060410366514557,-0.04100150644550582,-0.014948932601014162,-0.07103685233829991
-0.009773843811168246,0.023736477827122883,0.07260569688296412,9.259112041666667,0.23699404166666665,-3.0727503333333335,-0.0021572997883881574,0.020803347455807853,0.07580565302255518,-0.014884706349888761,0.10220537538024199,0.09537180590457257,-0.005632262148526604,0.0037557988755815962,-0.0021311257135645688,0.0527839286805378,0.16067192272187963,0.059624212011685856
0.0020943951023931952,0.016057029118347832,0.0767944870877505,9.152873333333332,-0.08172208333333333,-3.195333458333333,-0.0021572997883881574,0.020803347455807853,0.07580565302255518,-0.014884706349888761,0.10220537538024199,0.09537180590457257,-0.006308543259900363,0.00044197021694310505,-0.005855947703908208,-0.14310577330719704,-0.20334554783423692,0.026711456159586502
0.013962634015954637,0.0153588974175501,0.08866272600131193,9.438900625,0.32688833333333334,-3.2525389166666665,-0.0021572997883881574,0.020803347455807853,0.07580565302255518,-0.014884706349888761,0.10220537538024199,0.09537180590457257,0.004029839052663557,-0.002562968360431582,-0.0005976894204599915,0.15500222833432806,-0.019619278828413186,-0.05063282635644707
0.006283185307179587,0.019547687622336492,0.09005898940290741,9.128356708333332,0.367749375,-3.1544724166666662,-0.0021572997883881574,0.020803347455807853,0.07580565302255518,-0.014884706349888761,0.10220537538024199,0.09537180590457257,0.003800521118644842,0.0019937684355605064,0.004052435860170863,-0.12284061679345439,-0.1012901260044032,0.06754769294740423
-0.0013962634015954637,0.016057029118347832,0.08168140899333462,9.373522958333332,0.5720545833333333,-3.293399958333333,-0.0021572997883881574,0.020803347455807853,0.07580565302255518,-0.014884706349888761,0.10220537538024199,0.09537180590457257,-0.006018359299940637,-0.010009066517852513,0.010685870088046518,0.28930001324605603,-0.44586522432412695,-0.32813707198190145
-0.0041887902047863905,0.02024581932313422,0.07749261878854824,9.373522958333332,0.2860272916666666,-3.260711125,-0.0021572997883881574,0.020803347455807853,0.07580565302255518,-0.014884706349888761,0.10220537538024199,0.09537180590457257,0.0011013857563708896,-0.004575524434155757,0.005098878628654451,-0.032962490026571395,-0.010922091788263196,0.02702223210867368
-0.006283185307179587,0.029321531433504733,0.06702064327658225,9.438900625,0.3105439166666667,-3.317916583333333,-0.0021572997883881574,0.020803347455807853,0.07580565302255518,-0.014884706349888761,0.10220537538024199,0.09537180590457257,-0.002884412302241449,0.00012758407879309767,-0.0020779607894895976,0.2245378968724866,0.0259856783010055,-0.12800853633909995
-0.0006981317007977319,0.028623399732707,0.07120943348136866,8.989429166666666,0.26151066666666667,-3.0645781249999997,-0.0021572997883881574,0.020803347455807853,0.07580565302255518,-0.014884706349888761,0.10220537538024199,0.09537180590457257,0.0035743339675577664,0.0068853270519305225,0.002816172026192407,-0.09416978195284,-0.06392716796255596,0.006332340981433091
-0.00767944870877505,0.0153588974175501,0.06562437987498679,9.177389958333332,0.392266,-3.0809225416666663,-0.0021572997883881574,0.020803347455807853,0.07580565302255518,-0.014884706349888761,0.10220537538024199,0.09537180590457257,-0.003001633524506349,-0.0017417425578105932,-0.006635221214997959,-0.05735043790347319,0.08302467650301995,0.10038792910944233
-0.0013962634015954637,0.01815142422074103,0.07888888219014369,9.291800875,0.22882183333333334,-3.2852277500000002,-0.0021572997883881574,0.020803347455807853,0.07580565302255518,-0.014884706349888761,0.10220537538024199,0.09537180590457257,-0.002325866971780392,-0.0030084020588819595,-0.004814842247024015,0.04054527991175798,-0.007138464351448683,-0.03425448080425032
0.0027925268031909274,0.024434609527920613,0.08866272600131193,9.210078791666666,0.24516625,-3.219850083333333,-0.0021572997883881574,0.020803347455807853,0.07580565302255518,-0.014884706349888761,0.10220537538024199,0.09537180590457257,0.0015676752257238928,0.0019358310117518556,-0.0003884662665564662,-0.028815281585697326,-0.12986322753244664,-0.0016015779315878573
0.0,0.02024581932313422,0.08936085770210968,9.26728425,0.5066769166666666,-3.219850083333333,-0.0021572997883881574,0.020803347455807853,0.07580565302255518,-0.014884706349888761,0.10220537538024199,0.09537180590457257,0.005812392987705745,9.172307844207845e-05,-6.4831267942237245e-06,0.06942006044087258,-0.007244799748311898,-0.038420422586977095
-0.011868238913561441,0.02024581932313422,0.08936085770210968,9.128356708333332,0.5230213333333333,-3.1463002083333333,-0.0021572997883881574,0.020803347455807853,0.07580565302255518,-0.014884706349888761,0.10220537538024199,0.09537180590457257,0.003641591682269884,0.003856253825707388,0.007664877583441353,-0.10249050289190484,0.0910518029874764,-0.0017058648757656664
-0.01884955592153876,0.011868238913561441,0.07400196028455958,9.332661916666666,0.34323275000000003,-3.1463002083333333,-0.0021572997883881574,0.020803347455807853,0.07580565302255518,-0.014884706349888761,0.10220537538024199,0.09537180590457257,-0.004809090754662393,-0.003074074205305274,0.0036629199829420504,0.007832010904072333,0.18522537026810937,0.0348612567091442
-0.009075712110370514,0.01815142422074103,0.06702064327658225,9.316317499999998,-0.024516625,-3.219850083333333,-0.0021572997883881574,0.020803347455807853,0.07580565302255518,-0.014884706349888761,0.10220537538024199,0.09537180590457257,-0.007468849518824061,-0.010292919499026448,0.004996208667374697,0.24485948584948022,-0.8230883570780683,-0.2896056859242058
0.003490658503988659,0.014660765716752367,0.0635299847725936,9.16921775,0.13892754166666665,-3.1463002083333333,-0.0021572997883881574,0.020803347455807853,0.07580565302255518,-0.014884706349888761,0.10220537538024199,0.09537180590457257,-0.003525149356377963,-0.002083712493994265,-0.0062915052766121735,-0.020748858341376544,-0.08051797700529052,-0.014148051758373524
0.010471975511965976,0.01884955592153876,0.07609635538695278,9.210078791666666,0.3023717083333333,-3.1217835833333334,-0.0021572997883881574,0.020803347455807853,0.07580565302255518,-0.014884706349888761,0.10220537538024199,0.09537180590457257,-0.0011613686421419363,0.001026058791338422,0.0008461391792035152,-0.04504141336442313,-0.03151465455381118,0.05150711016698562
0.013264502315156905,0.016755160819145562,0.07400196028455958,9.299973083333333,0.367749375,-3.2280222916666665,-0.0021572997883881574,0.020803347455807853,0.07580565302255518,-0.014884706349888761,0.10220537538024199,0.09537180590457257,0.0011424509154688402,-0.0008716264045629917,-0.004083957913998641,-0.029046258146076497,0.0010368956335262114,-0.005928081585293564
0.010471975511965976,0.01815142422074103,0.08237954069413235,9.357178541666666,0.367749375,-3.219850083333333,-0.0021572997883881574,0.020803347455807853,0.07580565302255518,-0.014884706349888761,0.10220537538024199,0.09537180590457257,0.005421469545368584,-0.00213413470459935,0.001139178114105579,0.06523121372260272,-0.1256327671367249,0.03924052746380979
0.0,0.02234021442552742,0.07958701389094143,9.226423208333333,0.6210878333333334,-3.3015721666666664,-0.0021572997883881574,0.020803347455807853,0.07580565302255518,-0.014884706349888761,0.10220537538024199,0.09537180590457257,0.00440448952462879,0.00045192751302041545,-0.0034522930115078567,-0.020554535736938974,-0.0030671274044766546,-0.05068406351072239
-0.009075712110370514,0.021642082724729686,0.08726646259971647,9.26728425,0.6292600416666666,-3.2035056666666666,-0.0021572997883881574,0.020803347455807853,0.07580565302255518,-0.014884706349888761,0.10220537538024199,0.09537180590457257,0.010150095376170894,0.0031432488856379466,0.003146179444230067,0.011917872001309131,0.16455528202052058,0.0023405345371711127
-0.029321531433504733,0.0153588974175501,0.08098327729253688,9.242767624999999,0.3023717083333333,-3.211677875,-0.0021572997883881574,0.020803347455807853,0.07580565302255518,-0.014884706349888761,0.10220537538024199,0.09537180590457257,-0.0014104802229215937,0.0004382057257142156,0.004640805439292989,0.012166049657422273,0.16068883990298985,-0.030400654252578874
-0.02652900463031381,0.013962634015954637,0.07120943348136866,9.218250999999999,-0.016344416666666667,-3.1544724166666662,-0.0021572997883881574,0.020803347455807853,0.07580565302255518,-0.014884706349888761,0.10220537538024199,0.09537180590457257,-0.012380936248946428,0.001813935088053424,-0.0019448807643419773,0.007856815824974493,0.09135989201043983,0.002075636008926506
-0.0013962634015954637,0.010471975511965976,0.07539822368615504,9.201906583333333,-0.196133,-3.162644625,-0.0021572997883881574,0.020803347455807853,0.07580565302255518,-0.014884706349888761,0.10220537538024199,0.09537180590457257,-0.01143363047218613,-0.0054775047805024155,-0.001406104838102182,-0.0820747876698421,-0.1295892285955257,0.055568647193058554
0.020943951023931952,0.021642082724729686,0.07819075048934597,9.36535075,0.06537766666666667,-3.2770555416666665,-0.0021572997883881574,0.020803347455807853,0.07580565302255518,-0.014884706349888761,0.10220537538024199,0.09537180590457257,0.006056640862498802,-0.006228800481360125,0.01177609550155984,0.32746537952347804,-0.6398922756973296,-0.36792208146218475
0.02652900463031381,0.0153588974175501,0.07749261878854824,9.193734375,0.3023717083333333,-3.195333458333333,-0.0021572997883881574,0.020803347455807853,0.07580565302255518,-0.014884706349888761,0.10220537538024199,0.09537180590457257,0.0025507248831909217,-0.005661576537824379,0.0035316195562540183,-0.08202799500918076,-0.1216537579024,0.108488228184956
0.021642082724729686,0.02583087292951608,0.07051130178057091,9.357178541666666,0.5475379583333333,-3.415983083333333,-0.0021572997883881574,0.020803347455807853,0.07580565302255518,-0.014884706349888761,0.10220537538024199,0.09537180590457257,0.006358417570592639,0.0006958113023659163,-0.003713415534275848,0.052995764217999335,-0.03148070595518131,-0.1281853998710546
0.008377580409572781,0.024434609527920613,0.07749261878854824,9.250939833333334,0.612915625,-3.162644625,-0.0021572997883881574,0.020803347455807853,0.07580565302255518,-0.014884706349888761,0.10220537538024199,0.09537180590457257,0.00783354512016338,-0.0043608087312202596,-0.0003195359008426837,-0.032847848054784114,-0.02342493865832839,0.09660467183383845
-0.006981317007977318,0.032812189937493394,0.07819075048934597,9.316317499999998,0.661948875,-3.358777625,-0.0021572997883881574,0.020803347455807853,0.07580565302255518,-0.014884706349888761,0.10220537538024199,0.09537180590457257,0.0094199550493741,0.0005258472052446755,-0.004141748953640109,0.1470258506887045,0.08703056083726222,-0.1608731083476313
-0.02583087292951608,0.032114058236695664,0.08656833089891874,9.022118,0.4903325,-3.0400614999999998,-0.0021572997883881574,0.020803347455807853,0.07580565302255518,-0.014884706349888761,0.10220537538024199,0.09537180590457257,0.0036668277203022294,0.008150393463507856,0.005996091355675893,-0.10234767439601349,0.1566030527945347,0.12105031248428806
-0.033510321638291124,0.0153588974175501,0.0747000919853573,9.226423208333333,0.17978858333333333,-3.2852277500000002,-0.0021572997883881574,0.020803347455807853,0.07580565302255518,-0.014884706349888761,0.10220537538024199,0.09537180590457257,-0.006840865575606613,-0.0008744782830771614,-0.0032675570506709665,0.028283552825425638,0.11978840213972393,-0.12438888354202118
-0.019547687622336492,0.017453292519943295,0.08098327729253688,9.16921775,-0.057205458333333334,-3.0400614999999998,-0.0021572997883881574,0.020803347455807853,0.07580565302255518,-0.014884706349888761,0.10220537538024199,0.09537180590457257,-0.009927709686163876,0.0026446149848437855,-0.00043270415187383145,-0.10246926961136825,0.04213855029379891,0.14951985146954822
0.0,0.011868238913561441,0.08237954069413235,9.373522958333332,-0.13892754166666665,-3.342433208333333,-0.0021572997883881574,0.020803347455807853,0.07580565302255518,-0.014884706349888761,0.10220537538024199,0.09537180590457257,-0.009970247951199862,-0.006482999729037142,0.004606019408697995,0.02846682495672619,-0.11753959001644107,-0.1079884048069666
0.02024581932313422,0.024434609527920613,0.07260569688296412,9.316317499999998,0.0980665,-3.1299557916666663,-0.0021572997883881574,0.020803347455807853,0.07580565302255518,-0.014884706349888761,0.10220537538024199,0.09537180590457257,-0.0035612323784133385,0.006419782870443942,-0.000557438137081065,0.04880447327768484,-0.10110507897004946,0.08812885168627763
0.02722713633111154,0.011868238913561441,0.07400196028455958,9.218250999999999,0.3023717083333333,-3.309744375,-0.0021572997883881574,0.020803347455807853,0.07580565302255518,-0.014884706349888761,0.10220537538024199,0.09537180590457257,0.001118111876675606,-0.01659043195073328,0.004631069071165989,0.1472104363811304,-0.5963135887183243,-0.35623710205090364
0.01815142422074103,0.02583087292951608,0.07260569688296412,9.455245041666666,0.6210878333333334,-3.2852277500000002,-0.0021572997883881574,0.020803347455807853,0.07580565302255518,-0.014884706349888761,0.10220537538024199,0.09537180590457257,0.008431794245044859,-0.0025196311920927176,-0.0034793814241612514,0.10604145095323392,0.029654289142745458,-0.04229492190036144
0.0013962634015954637,0.031415926535897934,0.07958701389094143,9.242767624999999,0.563882375,-3.2035056666666666,-0.0021572997883881574,0.020803347455807853,0.07580565302255518,-0.014884706349888761,0.10220537538024199,0.09537180590457257,0.006661144421121034,0.0014412953968119288,0.003116556227427411,0.028549701999553187,-0.07644940425014389,-0.03820555640110228
-0.011868238913561441,0.027925268031909273,0.07330382858376185,9.185562166666665,0.7191543333333333,-3.1299557916666663,-0.0021572997883881574,0.020803347455807853,0.07580565302255518,-0.014884706349888761,0.10220537538024199,0.09537180590457257,0.008128435458403744,0.0053855096028782995,-0.0025393947045536957,0.0364542510007045,0.18121151966707408,-0.042374996644835974
-0.027925268031909273,0.016755160819145562,0.07819075048934597,9.112012291666666,0.35957716666666667,-3.0482337083333335,-0.0021572997883881574,0.020803347455807853,0.07580565302255518,-0.014884706349888761,0.10220537538024199,0.09537180590457257,0.0005192635667869046,0.004219267749114456,-0.0017446754195984677,-0.033021788978427426,0.10342860778613425,0.08793904894454337
-0.028623399732707,0.008377580409572781,0.08168140899333462,9.177389958333332,0.15527195833333335,-3.2280222916666665,-0.0021572997883881574,0.020803347455807853,0.07580565302255518,-0.014884706349888761,0.10220537538024199,0.09537180590457257,-0.009169924187720686,-0.002753864201255112,-0.004335163394782195,-0.04913724784870079,0.10749104805163552,-0.0018557742973967972
-0.010471975511965976,0.013962634015954637,0.09005898940290741,9.275456458333332,-0.057205458333333334,-3.2280222916666665,-0.0021572997883881574,0.020803347455807853,0.07580565302255518,-0.014884706349888761,0.10220537538024199,0.09537180590457257,-0.008833868839742043,-0.00019534500975191676,0.005157545235595087,-0.037244552665291905,-0.0481170481936226,0.006223528639291988
0.006981317007977318,0.013962634015954637,0.08028514559173915,9.349006333333334,0.04086104166666667,-3.2443667083333327,-0.0021572997883881574,0.020803347455807853,0.07580565302255518,-0.014884706349888761,0.10220537538024199,0.09537180590457257,-0.005344921085768505,-0.003188740184937673,0.0026626103530874782,0.11420433233610607,-0.12137031184862515,-0.08746981643400908
0.01815142422074103,0.02024581932313422,0.0747000919853573,9.1201845,0.2860272916666666,-3.0727503333333335,-0.0021572997883881574,0.020803347455807853,0.07580565302255518,-0.014884706349888761,0.10220537538024199,0.09537180590457257,8.63790158277788e-05,0.005486151647121368,-0.0009755866789204176,-0.12277394539959577,-0.03993126872642734,0.1289346129363626
0.017453292519943295,0.009075712110370514,0.0767944870877505,9.36535075,0.367749375,-3.334261,-0.0021572997883881574,0.020803347455807853,0.07580565302255518,-0.014884706349888761,0.10220537538024199,0.09537180590457257,0.004420123008676268,-0.006076565573242686,0.0037208376922134895,-0.09019365059962668,-0.133637278188777,0.0022479859743279587
0.009075712110370514,0.021642082724729686,0.06911503837897544,9.545139333333333,0.63743225,-3.342433208333333,-0.0021572997883881574,0.020803347455807853,0.07580565302255518,-0.014884706349888761,0.10220537538024199,0.09537180590457257,-0.003048121235999398,-0.011775493821649373,0.005450015340977002,0.3842611216152757,-0.4803218705798402,-0.357835774925717
-0.006283185307179587,0.02722713633111154,0.06771877497737998,9.136528916666666,0.563882375,-3.2361945,-0.0021572997883881574,0.020803347455807853,0.07580565302255518,-0.014884706349888761,0.10220537538024199,0.09537180590457257,0.0036616799543018187,0.0012296586238345934,-0.0052207032539538,-0.03686734778283678,0.02567362417884006,-0.03425526509030016
-0.013264502315156905,0.025132741228718346,0.07819075048934597,9.210078791666666,0.5148491249999999,-3.170816833333333,-0.0021572997883881574,0.020803347455807853,0.07580565302255518,-0.014884706349888761,0.10220537538024199,0.09537180590457257,0.00246933217057665,0.002789761746643106,-0.00457813929095154,0.0938860138029126,0.14421611419847072,-0.07930208702014756
-0.01815142422074103,0.019547687622336492,0.08726646259971647,9.022118,0.22882183333333334,-3.015544875,-0.0021572997883881574,0.020803347455807853,0.07580565302255518,-0.014884706349888761,0.10220537538024199,0.09537180590457257,-0.003635831439951099,0.003730367538431963,0.0014369612336126681,-0.18013731323763177,0.013448797405052807,0.13729741716479354
-0.01117010721276371,0.011868238913561441,0.08447393579652555,9.381695166666667,0.20430520833333332,-3.293399958333333,-0.0021572997883881574,0.020803347455807853,0.07580565302255518,-0.014884706349888761,0.10220537538024199,0.09537180590457257,-0.004059500961479914,-0.004642374899045836,-0.0011413097338743147,0.03241235452000755,0.08270911984757172,-0.07115842848446409
-0.0027925268031909274,0.020943951023931952,0.08656833089891874,9.316317499999998,0.04086104166666667,-3.1544724166666662,-0.0021572997883881574,0.020803347455807853,0.07580565302255518,-0.014884706349888761,0.10220537538024199,0.09537180590457257,-0.005760706186128855,0.0016188947966866087,0.004922801603261636,0.028380103726831685,-0.06847946301704556,0.051375354823384116
0.008377580409572781,0.017453292519943295,0.0767944870877505,9.259112041666667,0.17978858333333333,-3.260711125,-0.0021572997883881574,0.020803347455807853,0.07580565302255518,-0.014884706349888761,0.10220537538024199,0.09537180590457257,-0.004035191519460732,-0.004134091240100978,0.0012483346737402442,0.04074076814590945,-0.023449312549677165,-0.0793155402144028
0.016755160819145562,0.02583087292951608,0.07400196028455958,9.177389958333332,0.22882183333333334,-3.1054391666666663,-0.0021572997883881574,0.020803347455807853,0.07580565302255518,-0.014884706349888761,0.10220537538024199,0.09537180590457257,0.003172808737715377,0.004859621061813673,0.0018035271169447539,-0.1270085192592175,-0.15820108168046185,0.1330576205373278
0.010471975511965976,0.016057029118347832,0.07051130178057091,9.430728416666666,0.5475379583333333,-3.3751220416666667,-0.0021572997883881574,0.020803347455807853,0.07580565302255518,-0.014884706349888761,0.10220537538024199,0.09537180590457257,0.004647299419219272,-0.006347084088183372,0.00042931202198492137,0.028564564061603116,-0.0068342363561341105,-0.0628219686298879
0.0006981317007977319,0.028623399732707,0.06981317007977318,9.373522958333332,0.563882375,-3.2525389166666665,-0.0021572997883881574,0.020803347455807853,0.07580565302255518,-0.014884706349888761,0.10220537538024199,0.09537180590457257,0.006125509686598909,0.0026121833438138196,-0.0002597648541325207,0.08976204861172447,0.09127833297679075,-0.02193271151179858
-0.01117010721276371,0.023038346126325153,0.06981317007977318,9.193734375,0.3840937916666667,-3.211677875,-0.0021572997883881574,0.020803347455807853,0.07580565302255518,-0.014884706349888761,0.10220537538024199,0.09537180590457257,-0.005824796405284987,-0.012275385054026002,0.006442480270540445,0.17107741314585914,-0.6237433486002241,-0.2924428279788611
-0.011868238913561441,0.027925268031909273,0.07400196028455958,9.250939833333334,0.269682875,-3.138128,-0.0021572997883881574,0.020803347455807853,0.07580565302255518,-0.014884706349888761,0.10220537538024199,0.09537180590457257,-0.0010161921840792633,0.005693308087372182,-0.007578704377622402,0.08151213105894373,0.025719848607205407,0.01882350684839172
-0.009773843811168246,0.016755160819145562,0.08866272600131193,9.087495666666666,0.220649625,-3.178989041666666,-0.0021572997883881574,0.020803347455807853,0.07580565302255518,-0.014884706349888761,0.10220537538024199,0.09537180590457257,-0.002671114375946768,-0.001473853987921759,0.0016883601858930515,-0.12697216487107643,-0.027703453373070088,-0.009936503294903396
-0.004886921905584123,0.019547687622336492,0.08517206749732328,9.340834124999999,0.2778550833333333,-3.162644625,-0.0021572997883881574,0.020803347455807853,0.07580565302255518,-0.014884706349888761,0.10220537538024199,0.09537180590457257,-0.0007626023994583072,0.0012814867621115042,0.0010788069743315042,0.08158111735927936,0.08688455371277985,-0.005845612980076506
-0.0027925268031909274,0.016755160819145562,0.08307767239493008,9.177389958333332,0.10623870833333333,-3.1544724166666662,-0.0021572997883881574,0.020803347455807853,0.07580565302255518,-0.014884706349888761,0.10220537538024199,0.09537180590457257,-0.005545368423026283,-0.0006085712121928253,0.004013772605580429,-0.11465969474412067,-0.019257029184796458,0.06781554177253146
0.00767944870877505,0.01815142422074103,0.07539822368615504,9.406211791666665,0.14709974999999997,-3.293399958333333,-0.0021572997883881574,0.020803347455807853,0.07580565302255518,-0.014884706349888761,0.10220537538024199,0.09537180590457257,-0.001134862845512484,-0.00020268525977380859,-0.0004885513578057351,0.14291813679255477,-0.07653049659047921,-0.10385905904217799
0.010471975511965976,0.01884955592153876,0.07609635538695278,9.1201845,0.3023717083333333,-3.0890947499999997,-0.0021572997883881574,0.020803347455807853,0.07580565302255518,-0.014884706349888761,0.10220537538024199,0.09537180590457257,0.002368196766588506,0.0028278204846525195,0.001603375020064664,-0.14740759077021992,-0.10512275635335074,0.13303340423351948
0.005585053606381855,0.012566370614359173,0.07260569688296412,9.414383999999998,0.5148491249999999,-3.358777625,-0.0021572997883881574,0.020803347455807853,0.07580565302255518,-0.014884706349888761,0.10220537538024199,0.09537180590457257,0.005706200464279573,-0.00952169042024976,0.0006730741145559726,0.13872881075638566,0.03799230785552289,-0.10379449279910877
-0.005585053606381855,0.031415926535897934,0.07190756518216637,9.136528916666666,0.44129925,-3.1544724166666662,-0.0021572997883881574,0.020803347455807853,0.07580565302255518,-0.014884706349888761,0.10220537538024199,0.09537180590457257,0.0043120964033129235,0.006177591760933194,-0.0008020810846243653,-0.01663622792736529,0.07894905775835227,0.010794637318220869
-0.014660765716752367,0.01884955592153876,0.07330382858376185,9.16921775,0.2860272916666666,-3.178989041666666,-0.0021572997883881574,0.020803347455807853,0.07580565302255518,-0.014884706349888761,0.10220537538024199,0.09537180590457257,-0.003012474011093095,-0.002915690414792077,-0.007704111931794322,-0.061424165147846856,0.0012211198867411548,0.014593172587696886
-0.008377580409572781,0.024434609527920613,0.08866272600131193,9.291800875,0.2860272916666666,-3.211677875,-0.0021572997883881574,0.020803347455807853,0.07580565302255518,-0.014884706349888761,0.10220537538024199,0.09537180590457257,-0.0023823408475677184,-0.008688429599045727,0.012976191602674476,0.28720568206193564,-0.5390113250281818,-0.31195374223310557
-0.0020943951023931952,0.016755160819145562,0.08866272600131193,9.193734375,0.15527195833333335,-3.2280222916666665,-0.0021572997883881574,0.020803347455807853,0.07580565302255518,-0.014884706349888761,0.10220537538024199,0.09537180590457257,-0.0006680597998278614,-0.005382919379950123,0.00042177425830654367,-0.05323697761656954,-0.08499010943179754,-0.030250750304516665
-0.0006981317007977319,0.02722713633111154,0.0879645943005142,9.299973083333333,0.32688833333333334,-3.170816833333333,-0.0021572997883881574,0.020803347455807853,0.07580565302255518,-0.014884706349888761,0.10220537538024199,0.09537180590457257,-0.0008433162627093075,0.004754433769625641,0.0010992530163176828,0.11424225464399483,0.10301116132799443,-0.03023025427997606
0.0013962634015954637,0.017453292519943295,0.08587019919812101,9.07115125,0.122583125,-3.113611375,-0.0021572997883881574,0.020803347455807853,0.07580565302255518,-0.014884706349888761,0.10220537538024199,0.09537180590457257,-0.0033574434250638334,0.002566184568852464,0.005460898930767014,-0.1924310329672241,-0.08059466512815218,0.09230091663990775
