angular_velocity_x,angular_velocity_y,angular_velocity_z,linear_acceleration_x,linear_acceleration_y,linear_acceleration_z,fake_gyro_bias_x,fake_gyro_bias_y,fake_gyro_bias_z,fake_acc_bias_x,fake_acc_bias_y,fake_acc_bias_z,fake_gyro_noise_x,gyro_noise_y,gyro_noise_z,fake_acc_noise_x,fake_acc_noise_y,fake_acc_noise_z
0.041887902047863905,0.029321531433504733,0.057246799465414,9.07115125,0.18796079166666665,-3.759215833333333,-0.002235811579959605,0.020807025046228375,0.0762762168592784,-0.014657042054347782,0.547825861180261,0.06931137389769569,0.0,0.0,0.0,0.0,0.0,0.0
0.033510321638291124,0.03700098014227979,0.05585053606381855,9.112012291666666,0.6047434166666666,-3.832765708333333,-0.002235811579959605,0.020807025046228375,0.0762762168592784,-0.014657042054347782,0.547825861180261,0.06931137389769569,0.0,0.0,0.0,0.0,0.0,0.0
0.0027925268031909274,0.03769911184307752,0.07400196028455958,8.834157208333334,0.6864655000000001,-3.6693215416666662,-0.002235811579959605,0.020807025046228375,0.0762762168592784,-0.014657042054347782,0.547825861180261,0.06931137389769569,0.0,0.0,0.0,0.0,0.0,0.0
-0.024434609527920613,0.01884955592153876,0.07051130178057091,8.825985,0.5148491249999999,-3.726527,-0.002235811579959605,0.020807025046228375,0.0762762168592784,-0.014657042054347782,0.547825861180261,0.06931137389769569,0.0,0.0,0.0,0.0,0.0,0.0
-0.041189770347066175,0.00767944870877505,0.07958701389094143,8.964912541666667,0.35140495833333335,-3.751043625,-0.002235811579959605,0.020807025046228375,0.0762762168592784,-0.014657042054347782,0.547825861180261,0.06931137389769569,0.0,0.0,0.0,0.0,0.0,0.0
-0.04537856055185257,0.014660765716752367,0.08028514559173915,9.152873333333332,0.16344416666666667,-3.800076875,-0.002235811579959605,0.020807025046228375,0.0762762168592784,-0.014657042054347782,0.547825861180261,0.06931137389769569,0.0,0.0,0.0,0.0,0.0,0.0
-0.03630284844148206,0.028623399732707,0.0747000919853573,9.234595416666666,-0.17978858333333333,-3.7919046666666665,-0.002235811579959605,0.020807025046228375,0.0762762168592784,-0.014657042054347782,0.547825861180261,0.06931137389769569,0.0,0.0,0.0,0.0,0.0,0.0
-0.020943951023931952,0.03700098014227979,0.06841690667817772,9.201906583333333,-0.3105439166666667,-3.702010375,-0.002235811579959605,0.020807025046228375,0.0762762168592784,-0.014657042054347782,0.547825861180261,0.06931137389769569,0.0,0.0,0.0,0.0,0.0,0.0
0.003490658503988659,0.04049163864626844,0.07260569688296412,9.103840083333333,-0.3759215833333333,-3.571255041666667,-0.002235811579959605,0.020807025046228375,0.0762762168592784,-0.014657042054347782,0.547825861180261,0.06931137389769569,0.0,0.0,0.0,0.0,0.0,0.0
0.02583087292951608,0.03769911184307752,0.08098327729253688,8.793296166666666,-0.20430520833333332,-3.587599458333333,-0.002235811579959605,0.020807025046228375,0.0762762168592784,-0.014657042054347782,0.547825861180261,0.06931137389769569,0.0,0.0,0.0,0.0,0.0,0.0
0.033510321638291124,0.019547687622336492,0.07609635538695278,9.005773583333333,0.24516625,-3.6284604999999996,-0.002235811579959605,0.020807025046228375,0.0762762168592784,-0.014657042054347782,0.547825861180261,0.06931137389769569,0.0,0.0,0.0,0.0,0.0,0.0
0.023736477827122883,0.016057029118347832,0.08587019919812101,9.005773583333333,0.465815875,-3.7346992083333332,-0.002235811579959605,0.020807025046228375,0.0762762168592784,-0.014657042054347782,0.547825861180261,0.06931137389769569,0.0,0.0,0.0,0.0,0.0,0.0
0.0006981317007977319,0.010471975511965976,0.07330382858376185,9.079323458333333,0.6946377083333333,-3.8082490833333327,-0.002235811579959605,0.020807025046228375,0.0762762168592784,-0.014657042054347782,0.547825861180261,0.06931137389769569,0.0,0.0,0.0,0.0,0.0,0.0
-0.03420845333908886,0.020943951023931952,0.07749261878854824,9.438900625,0.6292600416666666,-3.87362675,-0.002235811579959605,0.020807025046228375,0.0762762168592784,-0.014657042054347782,0.547825861180261,0.06931137389769569,0.0,0.0,0.0,0.0,0.0,0.0
-0.047472955654245766,0.03490658503988659,0.08028514559173915,8.989429166666666,0.220649625,-3.726527,-0.002235811579959605,0.020807025046228375,0.0762762168592784,-0.014657042054347782,0.547825861180261,0.06931137389769569,0.0,0.0,0.0,0.0,0.0,0.0
-0.04049163864626844,0.02583087292951608,0.0747000919853573,8.981256958333333,-0.4494714583333333,-3.4650163333333333,-0.002235811579959605,0.020807025046228375,0.0762762168592784,-0.014657042054347782,0.547825861180261,0.06931137389769569,0.0,0.0,0.0,0.0,0.0,0.0
0.00767944870877505,0.01815142422074103,0.08377580409572781,8.87501825,-0.9479761666666666,-3.342433208333333,-0.002235811579959605,0.020807025046228375,0.0762762168592784,-0.014657042054347782,0.547825861180261,0.06931137389769569,0.0,0.0,0.0,0.0,0.0,0.0
0.05305800926062762,0.0013962634015954637,0.06213372137099814,8.825985,-0.8008764166666666,-3.4078108749999996,-0.002235811579959605,0.020807025046228375,0.0762762168592784,-0.014657042054347782,0.547825861180261,0.06931137389769569,0.0,0.0,0.0,0.0,0.0,0.0
0.08447393579652555,-0.008377580409572781,0.06492624817418906,9.291800875,0.08989429166666667,-3.702010375,-0.002235811579959605,0.020807025046228375,0.0762762168592784,-0.014657042054347782,0.547825861180261,0.06931137389769569,0.0,0.0,0.0,0.0,0.0,0.0
0.06422811647339133,0.005585053606381855,0.056548667764616284,9.16921775,0.9724927916666666,-3.87362675,-0.002235811579959605,0.020807025046228375,0.0762762168592784,-0.014657042054347782,0.547825861180261,0.06931137389769569,0.0,0.0,0.0,0.0,0.0,0.0
0.006283185307179587,0.0153588974175501,0.06841690667817772,9.144701125,1.6262694583333333,-3.9390044166666667,-0.002235811579959605,0.020807025046228375,0.0762762168592784,-0.014657042054347782,0.547825861180261,0.06931137389769569,0.036215850796902246,-0.004286051650379778,-0.01115144502758467,-0.06886849619749223,0.11062116269142568,-0.01986234257616783
-0.06562437987498679,0.023736477827122883,0.09145525280450287,9.283628666666665,1.4056198333333334,-3.898143375,-0.002235811579959605,0.020807025046228375,0.0762762168592784,-0.014657042054347782,0.547825861180261,0.06931137389769569,0.027927515225518923,-0.003391951515406495,-0.003005777026834674,0.20477019994380743,0.6377258002465892,-0.15066816799165128
-0.12147491593880534,0.030019663134302467,0.09704030641088471,8.87501825,0.13075533333333333,-3.5957716666666664,-0.002235811579959605,0.020807025046228375,0.0762762168592784,-0.014657042054347782,0.547825861180261,0.06931137389769569,-0.010880056456164473,0.0035293154482529234,-0.006360982898661858,0.012702494056536848,0.511016841194417,-0.07743957419889157
-0.09983283321407566,0.023038346126325153,0.11030480872604163,8.850501625,-0.8907707083333333,-3.4404997083333333,-0.002235811579959605,0.020807025046228375,0.0762762168592784,-0.014657042054347782,0.547825861180261,0.06931137389769569,-0.036864400470098965,0.006770552883501085,0.00622818145153677,-0.0407309341425981,0.3143515936043732,0.01220958222574862
-0.02583087292951608,0.009075712110370514,0.09773843811168245,8.932223708333334,-1.5200307499999999,-3.4650163333333333,-0.002235811579959605,0.020807025046228375,0.0762762168592784,-0.014657042054347782,0.547825861180261,0.06931137389769569,-0.03895413549250544,0.002403028513930597,0.006805758450818233,-0.036459552797640064,-0.12326299953555094,0.016509437391255363
0.05166174585903216,0.0041887902047863905,0.08377580409572781,9.005773583333333,-1.2748645,-3.4977051666666665,-0.002235811579959605,0.020807025046228375,0.0762762168592784,-0.014657042054347782,0.547825861180261,0.06931137389769569,-0.021321176562016403,-0.003508778409479895,0.011779177454984274,-0.22436734792883012,-0.4623630342932707,0.1884517084003528
0.0942477796076938,0.01117010721276371,0.06073745796940267,9.455245041666666,-0.35140495833333335,-3.87362675,-0.002235811579959605,0.020807025046228375,0.0762762168592784,-0.014657042054347782,0.547825861180261,0.06931137389769569,0.001811122999722216,-0.010303207065555875,0.004794802181651786,0.09424475117939451,-0.5194697475834043,0.05351248004308879
0.09075712110370514,0.031415926535897934,0.050963614158234416,9.26728425,0.6864655000000001,-3.979865458333333,-0.002235811579959605,0.020807025046228375,0.0762762168592784,-0.014657042054347782,0.547825861180261,0.06931137389769569,0.018868628105844068,-0.006666410297614089,-0.005024241194803324,0.15178546724715802,-0.23731374870553107,-0.09739458205336596
0.05305800926062762,0.04468042885105484,0.0614355896702004,8.964912541666667,1.1604535833333331,-3.7837324583333327,-0.002235811579959605,0.020807025046228375,0.0762762168592784,-0.014657042054347782,0.547825861180261,0.06931137389769569,0.025713231976452113,0.005871250660903471,-0.006241225263697296,0.020977599838393837,-0.04522486666476476,-0.0399854114660658
0.0020943951023931952,0.032812189937493394,0.07400196028455958,8.9240515,1.2503478749999999,-3.702010375,-0.002235811579959605,0.020807025046228375,0.0762762168592784,-0.014657042054347782,0.547825861180261,0.06931137389769569,0.024810877992574216,0.0003057770129072585,-0.012853746486166585,0.0379792736699831,-0.10754317006314473,-0.09247641062654768
-0.047472955654245766,0.030019663134302467,0.08936085770210968,8.891362666666666,0.9643205833333333,-3.6856659583333333,-0.002235811579959605,0.020807025046228375,0.0762762168592784,-0.014657042054347782,0.547825861180261,0.06931137389769569,0.01612492361354981,0.0028204605896156,-0.0028966312617346984,-0.1261728803973627,0.22062618268421755,-0.036291580581265304
-0.08028514559173915,0.024434609527920613,0.09494591130849153,9.144701125,0.5230213333333333,-3.6121160833333334,-0.002235811579959605,0.020807025046228375,0.0762762168592784,-0.014657042054347782,0.547825861180261,0.06931137389769569,-0.002435240036407364,0.0029116940562375934,-0.002661545103275577,0.08612708185146614,0.38027049399213264,-0.01603686704603839
-0.07539822368615504,0.01815142422074103,0.10053096491487339,8.97308475,-0.23699404166666665,-3.5794272499999997,-0.002235811579959605,0.020807025046228375,0.0762762168592784,-0.014657042054347782,0.547825861180261,0.06931137389769569,-0.00462416486042104,0.0017755783376218117,0.01661926624555061,-0.020013519983328502,0.1392889361861293,0.032938088777023804
-0.06562437987498679,0.014660765716752367,0.06702064327658225,9.013945791666666,-0.5148491249999999,-3.6448049166666663,-0.002235811579959605,0.020807025046228375,0.0762762168592784,-0.014657042054347782,0.547825861180261,0.06931137389769569,-0.022237746803665113,-0.004298303831964766,0.002664415706727325,-0.2283720844765784,0.02501590318739312,0.0780449345598483
-0.020943951023931952,0.023038346126325153,0.06213372137099814,9.471589458333332,-0.563882375,-3.800076875,-0.002235811579959605,0.020807025046228375,0.0762762168592784,-0.014657042054347782,0.547825861180261,0.06931137389769569,-0.019873825018819725,-0.009273368032074616,0.00039072320223613983,0.1803727991146876,0.1106001256479227,-0.10144612042543544
0.01815142422074103,0.041189770347066175,0.0614355896702004,9.112012291666666,-0.784532,-3.5957716666666664,-0.002235811579959605,0.020807025046228375,0.0762762168592784,-0.014657042054347782,0.547825861180261,0.06931137389769569,-0.01568686983503631,-0.0027315392662889694,0.0018401778025106828,0.04969568239687401,-0.24112272047341404,-0.03987636567653703
0.04956735075663895,0.046076692252650306,0.05794493116621174,9.013945791666666,-0.3023717083333333,-3.514049583333333,-0.002235811579959605,0.020807025046228375,0.0762762168592784,-0.014657042054347782,0.547825861180261,0.06931137389769569,-0.009944457189739598,0.007635274833260274,-0.008599858289159263,0.09875158118233429,-0.15158162231642155,0.03774137372525918
0.06981317007977318,0.0307177948351002,0.07539822368615504,8.817812791666666,0.0,-3.587599458333333,-0.002235811579959605,0.020807025046228375,0.0762762168592784,-0.014657042054347782,0.547825861180261,0.06931137389769569,0.003467830447273084,0.0023371821248512137,0.007897374861707253,-0.06484540707799175,-0.24587951291193155,0.06190260921466707
0.06283185307179587,0.02583087292951608,0.060039326268604934,8.948568125,0.4903325,-3.7101825833333333,-0.002235811579959605,0.020807025046228375,0.0762762168592784,-0.014657042054347782,0.547825861180261,0.06931137389769569,0.012906752108783923,0.006744529002145003,-0.0005304160197292828,-0.020126924275400377,-0.0981139643596012,-0.04859002438067363
0.03700098014227979,0.012566370614359173,0.06073745796940267,8.989429166666666,0.6864655000000001,-3.6121160833333334,-0.002235811579959605,0.020807025046228375,0.0762762168592784,-0.014657042054347782,0.547825861180261,0.06931137389769569,0.017014330058862957,0.007384689548750883,0.0037263732326619004,-0.04655042333887688,-0.48076167184540103,0.028844927215963462
-0.004886921905584123,0.0013962634015954637,0.04537856055185257,9.079323458333333,0.8989429166666666,-3.906315583333333,-0.002235811579959605,0.020807025046228375,0.0762762168592784,-0.014657042054347782,0.547825861180261,0.06931137389769569,0.018363791698701958,-0.005795432709025623,-0.0038396673316033344,0.03700736913215525,0.08648390938455949,-0.08568096610433082
-0.041887902047863905,0.012566370614359173,0.05305800926062762,9.005773583333333,0.7273265416666667,-3.7346992083333332,-0.002235811579959605,0.020807025046228375,0.0762762168592784,-0.014657042054347782,0.547825861180261,0.06931137389769569,0.009656122941371382,-0.0013132701712946543,-0.009592875053070701,-0.17515062078718235,0.30731100709961123,0.06570140167928477
-0.06073745796940267,0.0153588974175501,0.07260569688296412,9.357178541666666,0.11441091666666667,-3.8654545416666664,-0.002235811579959605,0.020807025046228375,0.0762762168592784,-0.014657042054347782,0.547825861180261,0.06931137389769569,-0.001600186869194691,-0.005192791088945004,-0.010077261533985601,0.28234255200226654,0.08603293282431419,-0.07734901433519875
-0.05794493116621174,0.025132741228718346,0.09285151620609833,8.793296166666666,-0.057205458333333334,-3.7101825833333333,-0.002235811579959605,0.020807025046228375,0.0762762168592784,-0.014657042054347782,0.547825861180261,0.06931137389769569,-0.006255503504792375,-0.001524871117354124,-0.006924760228517102,-0.09363168776918597,0.11012215127890432,-0.09338164239269879
-0.04537856055185257,0.027925268031909273,0.10681415022205297,8.981256958333333,-0.2778550833333333,-3.5222217916666665,-0.002235811579959605,0.020807025046228375,0.0762762168592784,-0.014657042054347782,0.547825861180261,0.06931137389769569,-0.017771269539572733,0.0032680868920603465,-0.0005044374433687843,-0.10580906528125793,0.09345165342461037,0.08224538201503741
-0.009773843811168246,0.020943951023931952,0.10821041362364843,9.193734375,-0.465815875,-3.6856659583333333,-0.002235811579959605,0.020807025046228375,0.0762762168592784,-0.014657042054347782,0.547825861180261,0.06931137389769569,-0.012906565959489375,0.0040766330613119205,0.010667725423873248,0.17196563888983848,0.02803631469740789,-0.10996643306396092
0.016057029118347832,0.013264502315156905,0.08656833089891874,8.850501625,-0.5230213333333333,-3.4650163333333333,-0.002235811579959605,0.020807025046228375,0.0762762168592784,-0.014657042054347782,0.547825861180261,0.06931137389769569,-0.01039682165412589,0.003437504396267083,0.00578410460726732,-0.16716622948342819,-0.14767053227243088,0.12286365247617544
0.03700098014227979,0.005585053606381855,0.07539822368615504,9.185562166666665,-0.22882183333333334,-3.7101825833333333,-0.002235811579959605,0.020807025046228375,0.0762762168592784,-0.014657042054347782,0.547825861180261,0.06931137389769569,-0.005143581943236581,-0.0034575586969015446,0.004321349969560345,0.13514734117208935,-0.04123912933499405,-0.02846664819946118
0.047472955654245766,0.012566370614359173,0.06702064327658225,8.915879291666666,-0.14709974999999997,-3.6529771249999996,-0.002235811579959605,0.020807025046228375,0.0762762168592784,-0.014657042054347782,0.547825861180261,0.06931137389769569,-0.0010724119295811795,-2.1145439186259017e-05,-0.0013213643377704624,-0.22853409684731263,-0.23323244411854513,0.0861629164490427
0.04956735075663895,0.012566370614359173,0.06981317007977318,9.373522958333332,0.318716125,-3.8245934999999998,-0.002235811579959605,0.020807025046228375,0.0762762168592784,-0.014657042054347782,0.547825861180261,0.06931137389769569,0.004578706811539056,-0.00867553838316041,-0.009483906837385838,0.12967471761229832,-0.6526822618990452,-0.2211599709406893
0.03420845333908886,0.02652900463031381,0.07958701389094143,9.103840083333333,0.6292600416666666,-3.726527,-0.002235811579959605,0.020807025046228375,0.0762762168592784,-0.014657042054347782,0.547825861180261,0.06931137389769569,0.0159463816561098,0.0007108544681251862,-0.0008636611718578325,0.09434313202745974,-0.12709458045897892,0.03722734053941503
0.0020943951023931952,0.025132741228718346,0.08098327729253688,8.915879291666666,0.8825985,-3.800076875,-0.002235811579959605,0.020807025046228375,0.0762762168592784,-0.014657042054347782,0.547825861180261,0.06931137389769569,0.014021971995819327,0.004402568279276577,0.0024851070317406473,-0.05250487015903163,0.2533075245896262,-0.11380434792599559
-0.02583087292951608,0.016057029118347832,0.07609635538695278,9.022118,0.3759215833333333,-3.571255041666667,-0.002235811579959605,0.020807025046228375,0.0762762168592784,-0.014657042054347782,0.547825861180261,0.06931137389769569,0.005639417726782949,-0.0033532849714222202,0.005755088768088346,-0.040460207667683386,0.08620766237065206,0.0903028724691965
-0.03700098014227979,0.02234021442552742,0.06562437987498679,9.103840083333333,0.20430520833333332,-3.751043625,-0.002235811579959605,0.020807025046228375,0.0762762168592784,-0.014657042054347782,0.547825861180261,0.06931137389769569,0.0004947231881091334,0.003513469772733998,0.006480010747486796,0.045367656542391055,0.012922115767509398,-0.024246281202767738
-0.03839724354387525,0.0153588974175501,0.05235987755982988,9.013945791666666,0.17978858333333333,-3.702010375,-0.002235811579959605,0.020807025046228375,0.0762762168592784,-0.014657042054347782,0.547825861180261,0.06931137389769569,0.0023909315678902953,-0.0023461366463155024,-0.004641270765164197,-0.11398549976748255,-0.08916036579773072,0.041343581662278056
-0.04258603374866164,0.019547687622336492,0.0614355896702004,9.242767624999999,0.35957716666666667,-3.7837324583333327,-0.002235811579959605,0.020807025046228375,0.0762762168592784,-0.014657042054347782,0.547825861180261,0.06931137389769569,-0.0011567829600541673,-0.009239898268480337,-0.009786121758901003,0.12303768283595114,0.04538542487541875,0.0005503345130824448
-0.04049163864626844,0.03769911184307752,0.08168140899333462,8.997601374999999,0.269682875,-3.7837324583333327,-0.002235811579959605,0.020807025046228375,0.0762762168592784,-0.014657042054347782,0.547825861180261,0.06931137389769569,-0.001170641550348204,0.00944077237303487,-0.0001624236613059798,0.06182897061651489,0.27376353683507376,-0.15469961130411466
-0.03839724354387525,0.01884955592153876,0.08168140899333462,8.87501825,-0.2778550833333333,-3.4731885416666666,-0.002235811579959605,0.020807025046228375,0.0762762168592784,-0.014657042054347782,0.547825861180261,0.06931137389769569,-0.013095256203817317,-0.009267317745406695,-0.005204440480285008,-0.20387929738805,0.02442243258472208,0.15585628105981464
-0.011868238913561441,0.03700098014227979,0.09215338450530061,9.283628666666665,-0.32688833333333334,-3.7837324583333327,-0.002235811579959605,0.020807025046228375,0.0762762168592784,-0.014657042054347782,0.547825861180261,0.06931137389769569,-0.017197788757600592,0.0038427912441585067,0.0039735470411097935,0.3519651609343853,0.334560220031991,-0.24444961001988968
0.02234021442552742,0.029321531433504733,0.08447393579652555,8.580818749999999,-0.9970094166666666,-3.293399958333333,-0.002235811579959605,0.020807025046228375,0.0762762168592784,-0.014657042054347782,0.547825861180261,0.06931137389769569,-0.02664752260170191,0.008130063818555825,0.0024882895973509737,-0.4369706735639776,-0.6710315066620405,-0.0037753253234422738
0.06911503837897544,0.01117010721276371,0.06981317007977318,9.455245041666666,-0.809048625,-3.7101825833333333,-0.002235811579959605,0.020807025046228375,0.0762762168592784,-0.014657042054347782,0.547825861180261,0.06931137389769569,-0.01724726130751661,-0.01012929373369426,-0.0024206354118545266,0.34789128973554106,-0.40125828907974886,-0.07288748003138608
0.10332349171806432,0.031415926535897934,0.0747000919853573,8.760607333333333,-0.008172208333333333,-3.563082833333333,-0.002235811579959605,0.020807025046228375,0.0762762168592784,-0.014657042054347782,0.547825861180261,0.06931137389769569,0.013098574349797606,0.011663994057408398,0.012355888703855141,-0.16304884379603238,-0.4826747745324757,0.08600578512381817
0.07749261878854824,0.00767944870877505,0.04956735075663895,9.087495666666666,0.9561483749999999,-3.7346992083333332,-0.002235811579959605,0.020807025046228375,0.0762762168592784,-0.014657042054347782,0.547825861180261,0.06931137389769569,0.024399986918494987,-0.009087411146914453,-0.007964136898394477,-0.09765438688460437,-0.261691115065981,0.0657267699178833
0.028623399732707,0.02583087292951608,0.06632251157578452,9.283628666666665,1.4791697083333333,-3.8654545416666664,-0.002235811579959605,0.020807025046228375,0.0762762168592784,-0.014657042054347782,0.547825861180261,0.06931137389769569,0.03502601908003278,0.001990441350523208,0.0022172585397768666,0.25368456330623357,0.15949704960904412,-0.06902481238106403
-0.041189770347066175,0.021642082724729686,0.06213372137099814,8.77695175,1.1604535833333331,-3.726527,-0.002235811579959605,0.020807025046228375,0.0762762168592784,-0.014657042054347782,0.547825861180261,0.06931137389769569,0.019544343467708416,0.00460834682079834,-0.006699066131062548,-0.27336834119531306,0.3071016062276913,0.06997544695211858
-0.08028514559173915,0.011868238913561441,0.07539822368615504,9.324489708333333,0.5475379583333333,-3.8654545416666664,-0.002235811579959605,0.020807025046228375,0.0762762168592784,-0.014657042054347782,0.547825861180261,0.06931137389769569,0.0025501385929095084,-0.006922149795784289,-0.013303210033319454,0.30680481103277807,0.34346963082065407,-0.17143597004933867
-0.08517206749732328,0.02583087292951608,0.10192722831646883,8.711574083333332,-0.13892754166666665,-3.5222217916666665,-0.002235811579959605,0.020807025046228375,0.0762762168592784,-0.014657042054347782,0.547825861180261,0.06931137389769569,-0.008325924396815692,0.004850133462858201,0.010844945670719055,-0.2487384857871908,0.261755208594274,-0.016122170305917997
-0.06911503837897544,0.016057029118347832,0.08028514559173915,9.210078791666666,-0.661948875,-3.489532958333333,-0.002235811579959605,0.020807025046228375,0.0762762168592784,-0.014657042054347782,0.547825861180261,0.06931137389769569,-0.024690537117590006,-0.004031338699739111,-0.0006724811637643481,-0.105794597646258,0.09420906498143106,0.12302405575632148
-0.019547687622336492,0.023736477827122883,0.08168140899333462,9.422556208333333,-0.8499096666666667,-3.7346992083333332,-0.002235811579959605,0.020807025046228375,0.0762762168592784,-0.014657042054347782,0.547825861180261,0.06931137389769569,-0.020834274357488743,0.0013247920352568246,0.010873960307804614,0.33137085761808055,-0.13891757512642638,-0.08531579632896437
0.02234021442552742,0.020943951023931952,0.060039326268604934,8.760607333333333,-0.5720545833333333,-3.563082833333333,-0.002235811579959605,0.020807025046228375,0.0762762168592784,-0.014657042054347782,0.547825861180261,0.06931137389769569,-0.016805216874324704,-0.0038704526110477453,-0.0030403678578927685,-0.42492921253734983,-0.9225964448184156,-0.09140880227200944
0.05026548245743669,0.025132741228718346,0.05375614096142535,9.618689208333333,-0.21247741666666667,-3.857282333333333,-0.002235811579959605,0.020807025046228375,0.0762762168592784,-0.014657042054347782,0.547825861180261,0.06931137389769569,-0.004288442625623252,-0.004770996196886699,0.001990853265124048,0.39686673678253964,-0.057316854425934295,-0.10934883027247999
0.059341194567807204,0.03420845333908886,0.04956735075663895,8.825985,-0.0980665,-3.6366327083333334,-0.002235811579959605,0.020807025046228375,0.0762762168592784,-0.014657042054347782,0.547825861180261,0.06931137389769569,5.1175975415901055e-05,0.0011885561312190895,-0.0012772730636580335,-0.19136695019650782,-0.23706521709633555,0.08234387867928818
0.05864306286700947,0.031415926535897934,0.05235987755982988,9.210078791666666,0.3759215833333333,-3.800076875,-0.002235811579959605,0.020807025046228375,0.0762762168592784,-0.014657042054347782,0.547825861180261,0.06931137389769569,0.008579924556332707,-0.00679566352107375,-0.011731552446528118,0.061800393734608265,-0.13113182012366267,0.009182518967819537
0.041887902047863905,0.04468042885105484,0.07609635538695278,9.087495666666666,0.63743225,-3.8164212916666664,-0.002235811579959605,0.020807025046228375,0.0762762168592784,-0.014657042054347782,0.547825861180261,0.06931137389769569,0.020358434398847842,0.005987759683601251,-0.0031687001257300904,0.24569426668560973,-0.22920730051358534,0.02518549209822812
0.0006981317007977319,0.032812189937493394,0.08237954069413235,8.597163166666666,1.0950759166666666,-3.8654545416666664,-0.002235811579959605,0.020807025046228375,0.0762762168592784,-0.014657042054347782,0.547825861180261,0.06931137389769569,0.020453561810236123,0.0038016339088863304,-0.004764424229260738,-0.32628907360439624,0.11010195492590126,0.008953626543124125
-0.039793506945470715,0.025132741228718346,0.09215338450530061,9.250939833333334,0.8744262916666666,-3.881798958333333,-0.002235811579959605,0.020807025046228375,0.0762762168592784,-0.014657042054347782,0.547825861180261,0.06931137389769569,0.016648458543182545,0.0011795425861590328,-0.0027110740621357704,0.20486835909249507,0.27798182389009846,-0.142526207244409
-0.07330382858376185,0.02234021442552742,0.09773843811168245,8.842329416666665,0.318716125,-3.5957716666666664,-0.002235811579959605,0.020807025046228375,0.0762762168592784,-0.014657042054347782,0.547825861180261,0.06931137389769569,-0.0004941537625178364,0.005031127600618787,-0.0006599333704217743,-0.011956071128655463,0.29008149907681297,0.012383164784302183
-0.07190756518216637,0.011868238913561441,0.0991347015132779,8.866846041666665,-0.26151066666666667,-3.6202882916666663,-0.002235811579959605,0.020807025046228375,0.0762762168592784,-0.014657042054347782,0.547825861180261,0.06931137389769569,-0.01609080068329291,-0.002317614119126505,0.0026797517279696687,-0.1345555928866205,0.2369000037516438,-0.06506169360197195
-0.039793506945470715,0.016755160819145562,0.0942477796076938,9.136528916666666,-0.73549875,-3.489532958333333,-0.002235811579959605,0.020807025046228375,0.0762762168592784,-0.014657042054347782,0.547825861180261,0.06931137389769569,-0.023206469325776462,-0.0025070914582951305,0.005729144426362971,-0.07321983454418911,0.09782857501987809,0.06560228071554652
0.006283185307179587,0.020943951023931952,0.08307767239493008,9.283628666666665,-0.93163175,-3.6202882916666663,-0.002235811579959605,0.020807025046228375,0.0762762168592784,-0.014657042054347782,0.547825861180261,0.06931137389769569,-0.025054378546709145,-0.007629408693478866,-0.009304971902230497,0.16409845597780176,-1.0290634508304943,-0.30839502245272454
0.05026548245743669,0.032114058236695664,0.08168140899333462,9.038462416666666,-0.48216029166666663,-3.571255041666667,-0.002235811579959605,0.020807025046228375,0.0762762168592784,-0.014657042054347782,0.547825861180261,0.06931137389769569,-0.007861770852084022,-0.002710582332511172,0.006153547303151754,-0.2526686076906136,-0.2867314002892171,0.10712760138084342
0.06562437987498679,0.03769911184307752,0.06981317007977318,9.545139333333333,0.08989429166666667,-3.7837324583333327,-0.002235811579959605,0.020807025046228375,0.0762762168592784,-0.014657042054347782,0.547825861180261,0.06931137389769569,0.00709133782394461,-0.006705665148059893,0.0009839530143004244,0.3805995879145939,-0.23737695691561703,-0.07255131580191819
0.05166174585903216,0.050963614158234416,0.06771877497737998,8.785123958333333,0.563882375,-3.6366327083333334,-0.002235811579959605,0.020807025046228375,0.0762762168592784,-0.014657042054347782,0.547825861180261,0.06931137389769569,0.016566711111345788,0.009637358939340934,0.004678761681597007,-0.12610620794554775,-0.1471927446574107,0.029366362820341288
0.01815142422074103,0.031415926535897934,0.05864306286700947,9.038462416666666,0.8580818749999999,-3.693838166666666,-0.002235811579959605,0.020807025046228375,0.0762762168592784,-0.014657042054347782,0.547825861180261,0.06931137389769569,0.015111959486662099,-0.0010066209571483202,-0.007764260688575058,-0.011716048769072082,0.11032765101726047,-0.023655589289256675
-0.011868238913561441,0.032812189937493394,0.0747000919853573,9.062979041666667,0.63743225,-3.6448049166666663,-0.002235811579959605,0.020807025046228375,0.0762762168592784,-0.014657042054347782,0.547825861180261,0.06931137389769569,0.013280586457872027,0.005621727233300793,0.001669346504353177,0.27836789218684643,0.09415106260489511,-0.03623222004462292
-0.03839724354387525,0.021642082724729686,0.07120943348136866,8.507268875,0.4494714583333333,-3.571255041666667,-0.002235811579959605,0.020807025046228375,0.0762762168592784,-0.014657042054347782,0.547825861180261,0.06931137389769569,0.003119243517695363,0.008999841718443667,-0.004013246871862275,-0.28566989683133953,0.11876263891732096,-0.007911146723433043
-0.04468042885105484,0.003490658503988659,0.07958701389094143,9.079323458333333,0.21247741666666667,-3.5549106249999998,-0.002235811579959605,0.020807025046228375,0.0762762168592784,-0.014657042054347782,0.547825861180261,0.06931137389769569,0.00022506032178229465,0.0027307786598681806,-0.001968067859889571,0.06977489061103619,0.16768023114624397,0.06947001418604695
-0.04537856055185257,-0.0020943951023931952,0.08307767239493008,8.940395916666665,-0.122583125,-3.693838166666666,-0.002235811579959605,0.020807025046228375,0.0762762168592784,-0.014657042054347782,0.547825861180261,0.06931137389769569,-0.009947092416969045,-0.0032697251504791086,0.006331805630352091,-0.1671933488705667,0.045257179676520785,-0.008313797319542248
-0.025132741228718346,0.0041887902047863905,0.07120943348136866,9.275456458333332,-0.21247741666666667,-3.67749375,-0.002235811579959605,0.020807025046228375,0.0762762168592784,-0.014657042054347782,0.547825861180261,0.06931137389769569,-0.012679633885155743,-0.00775030815271056,-0.0061242597961415806,0.016667748372420126,0.003936940801038309,0.012527507286466084
0.0,0.01884955592153876,0.08307767239493008,9.242767624999999,-0.220649625,-3.702010375,-0.002235811579959605,0.020807025046228375,0.0762762168592784,-0.014657042054347782,0.547825861180261,0.06931137389769569,-0.0055613125340252196,-0.007681952627024446,0.0010300370028478204,0.16820292183513835,-0.923317600493164,-0.3761665634561859
0.006283185307179587,0.030019663134302467,0.0614355896702004,9.013945791666666,-0.13892754166666665,-3.5549106249999998,-0.002235811579959605,0.020807025046228375,0.0762762168592784,-0.014657042054347782,0.547825861180261,0.06931137389769569,-0.01037251032205959,0.0064461282276747555,-0.013747433924540284,0.016871056184758176,-0.0984177841572932,0.008755410693496836
0.02722713633111154,0.016755160819145562,0.08936085770210968,8.981256958333333,0.057205458333333334,-3.571255041666667,-0.002235811579959605,0.020807025046228375,0.0762762168592784,-0.014657042054347782,0.547825861180261,0.06931137389769569,0.0009527283052538652,-0.002794018245400074,0.010819139344607034,-0.11401490588565776,0.09772803752662086,0.02085693432485521
0.025132741228718346,0.02234021442552742,0.06771877497737998,9.210078791666666,-0.13892754166666665,-3.6121160833333334,-0.002235811579959605,0.020807025046228375,0.0762762168592784,-0.014657042054347782,0.547825861180261,0.06931137389769569,-0.004413871114742987,0.0041473443898829045,-0.012606807118950843,0.1720875076377767,-0.24151768001934037,-0.03232565288337581
0.033510321638291124,0.013962634015954637,0.09285151620609833,8.866846041666665,0.34323275000000003,-3.546738416666667,-0.002235811579959605,0.020807025046228375,0.0762762168592784,-0.014657042054347782,0.547825861180261,0.06931137389769569,0.01066511813048711,0.003229892329305009,0.01257593218880804,-0.12220342472063561,0.019961243490152384,0.09837574259343439
0.012566370614359173,0.006981317007977318,0.06771877497737998,9.112012291666666,0.3023717083333333,-3.742871416666666,-0.002235811579959605,0.020807025046228375,0.0762762168592784,-0.014657042054347782,0.547825861180261,0.06931137389769569,0.005594941982877343,-0.0019274373734662323,-0.008340888563190594,-0.1018996514079153,-0.13917046739458297,0.09006580995120532
0.0013962634015954637,0.01117010721276371,0.08447393579652555,9.316317499999998,0.5802267916666666,-3.92266,-0.002235811579959605,0.020807025046228375,0.0762762168592784,-0.014657042054347782,0.547825861180261,0.06931137389769569,0.009057337669419305,-0.007719834524138457,0.003481621571211857,0.012639053815262095,0.11422048217544985,-0.01996291602844707
-0.016755160819145562,0.02583087292951608,0.07819075048934597,9.291800875,0.35140495833333335,-3.881798958333333,-0.002235811579959605,0.020807025046228375,0.0762762168592784,-0.014657042054347782,0.547825861180261,0.06931137389769569,0.0053528954843233886,-0.005962131728317907,-0.001367111533810618,0.08638212765137464,-0.08161236383595391,-0.03205371780624269
-0.02722713633111154,0.03769911184307752,0.08098327729253688,9.1201845,0.5148491249999999,-3.8164212916666664,-0.002235811579959605,0.020807025046228375,0.0762762168592784,-0.014657042054347782,0.547825861180261,0.06931137389769569,0.007454825982569485,0.0014397735850325104,-0.002418181193219443,0.2375604505993098,0.2738565636867741,-0.10126447612314853
-0.041887902047863905,0.03490658503988659,0.08587019919812101,8.646196416666667,-0.032688833333333334,-3.6121160833333334,-0.002235811579959605,0.020807025046228375,0.0762762168592784,-0.014657042054347782,0.547825861180261,0.06931137389769569,-0.0061270275724889705,0.006329583221220101,0.003614918979279074,-0.22431928128642012,0.11852203069059691,0.00042047359437316704
-0.030019663134302467,0.021642082724729686,0.07888888219014369,9.095667875,-0.269682875,-3.6121160833333334,-0.002235811579959605,0.020807025046228375,0.0762762168592784,-0.014657042054347782,0.547825861180261,0.06931137389769569,-0.015536944167258291,-0.0042073443361446234,-0.018770948468490204,0.05205218248956943,-0.7833846116825957,-0.3012641047304184
-0.0027925268031909274,0.02583087292951608,0.09145525280450287,9.128356708333332,-0.5230213333333333,-3.6529771249999996,-0.002235811579959605,0.020807025046228375,0.0762762168592784,-0.014657042054347782,0.547825861180261,0.06931137389769569,-0.008003887408918397,0.005239834799943292,0.01113959914661846,0.1926180446157477,-0.1964159738075842,-0.04848835702870248
0.013264502315156905,0.0153588974175501,0.06911503837897544,8.744262916666667,-0.13075533333333333,-3.5549106249999998,-0.002235811579959605,0.020807025046228375,0.0762762168592784,-0.014657042054347782,0.547825861180261,0.06931137389769569,-0.003912730902673247,0.0038603673031639128,-6.329850869956803e-05,-0.2162294407009341,-0.06546351118489983,0.09820906173959722
0.020943951023931952,0.00767944870877505,0.06981317007977318,9.177389958333332,0.0,-3.751043625,-0.002235811579959605,0.020807025046228375,0.0762762168592784,-0.014657042054347782,0.547825861180261,0.06931137389769569,-0.004549821749405307,-0.006482238824132473,-0.0003778994472907691,-0.0814688310924477,-0.1390821398558498,0.03304347175776069
0.030019663134302467,0.020943951023931952,0.07051130178057091,9.340834124999999,0.2778550833333333,-3.8164212916666664,-0.002235811579959605,0.020807025046228375,0.0762762168592784,-0.014657042054347782,0.547825861180261,0.06931137389769569,0.003118495217151362,-0.009816077368007941,-0.0008569266645431318,-0.040257322052916066,-0.1432339479351952,0.0579528086698444
0.023736477827122883,0.039793506945470715,0.07190756518216637,9.422556208333333,0.563882375,-3.930832208333333,-0.002235811579959605,0.020807025046228375,0.0762762168592784,-0.014657042054347782,0.547825861180261,0.06931137389769569,0.013801884701404685,-0.0013075960265574254,0.0015418710565760507,0.3520730959179004,-0.053319738761602994,-0.15428591534503747
-0.003490658503988659,0.04258603374866164,0.06911503837897544,8.719746291666667,0.6701210833333332,-3.6202882916666663,-0.002235811579959605,0.020807025046228375,0.0762762168592784,-0.014657042054347782,0.547825861180261,0.06931137389769569,0.012362556329733026,0.005141919925993575,0.001709516983991768,-0.08118554279001382,0.20861710850417753,-0.0072922471002487416
-0.028623399732707,0.031415926535897934,0.06562437987498679,8.883190458333333,0.2533384583333333,-3.6039438749999997,-0.002235811579959605,0.020807025046228375,0.0762762168592784,-0.014657042054347782,0.547825861180261,0.06931137389769569,-0.0039941246451055375,0.002859777587246169,-0.01297387007255267,-0.05675426191692226,0.2045093352671741,0.029099208451347412
-0.020943951023931952,0.02583087292951608,0.09215338450530061,8.997601374999999,-0.15527195833333335,-3.6611493333333334,-0.002235811579959605,0.020807025046228375,0.0762762168592784,-0.014657042054347782,0.547825861180261,0.06931137389769569,-0.004216592772290986,0.005487408382957948,0.0013885265833340108,0.041318602969997266,-0.016800333765194356,-0.02820904208394496
-0.012566370614359173,0.014660765716752367,0.08936085770210968,8.915879291666666,-0.122583125,-3.6039438749999997,-0.002235811579959605,0.020807025046228375,0.0762762168592784,-0.014657042054347782,0.547825861180261,0.06931137389769569,0.001837110005143222,0.0075126411243711866,-0.0029543006775765166,-0.0323153763331912,-0.1882848852716414,0.057514423025747004
-0.016057029118347832,-0.0006981317007977319,0.09564404300928926,8.981256958333333,0.2533384583333333,-3.718354791666666,-0.002235811579959605,0.020807025046228375,0.0762762168592784,-0.014657042054347782,0.547825861180261,0.06931137389769569,-0.003075965223880244,-0.008708264497307048,-0.00673209772930215,-0.0022285944441527788,-0.8024571354132243,-0.32618592134481256
-0.016057029118347832,0.013264502315156905,0.08377580409572781,9.136528916666666,-0.08172208333333333,-3.7346992083333332,-0.002235811579959605,0.020807025046228375,0.0762762168592784,-0.014657042054347782,0.547825861180261,0.06931137389769569,-0.007241804953224513,-0.006289114799009758,0.0026135069673494937,-0.179465901237872,0.06118774628922689,0.00043863656254280233
-0.0013962634015954637,0.02583087292951608,0.07819075048934597,9.496106083333332,-0.20430520833333332,-3.7346992083333332,-0.002235811579959605,0.020807025046228375,0.0762762168592784,-0.014657042054347782,0.547825861180261,0.06931137389769569,-0.006777939100570461,-0.0017647368238315776,0.006037715758925459,0.24174201050823194,0.024578882726312607,-0.09733656226420076
0.012566370614359173,0.029321531433504733,0.06632251157578452,9.013945791666666,-0.2533384583333333,-3.538566208333333,-0.002235811579959605,0.020807025046228375,0.0762762168592784,-0.014657042054347782,0.547825861180261,0.06931137389769569,-0.0013020356614044449,-0.0020534884604882578,0.00515193030700743,-0.023899875021341548,-0.19609380367146698,0.04565238890357492
0.014660765716752367,0.032812189937493394,0.056548667764616284,9.062979041666667,0.13892754166666665,-3.6284604999999996,-0.002235811579959605,0.020807025046228375,0.0762762168592784,-0.014657042054347782,0.547825861180261,0.06931137389769569,-0.002403529913489962,0.006896239562492219,-0.011985518822497548,0.13110633787828732,0.048906909536137216,-0.027909908559245654
0.019547687622336492,0.01884955592153876,0.08028514559173915,8.801468374999999,0.04086104166666667,-3.571255041666667,-0.002235811579959605,0.020807025046228375,0.0762762168592784,-0.014657042054347782,0.547825861180261,0.06931137389769569,0.0001168220342679552,-0.004000193990960493,-0.0030948705403401324,-0.11793739606361123,-0.0004189804917070957,0.020887445853894262
0.019547687622336492,0.02652900463031381,0.08726646259971647,9.038462416666666,0.04086104166666667,-3.6121160833333334,-0.002235811579959605,0.020807025046228375,0.0762762168592784,-0.014657042054347782,0.547825861180261,0.06931137389769569,0.0026641542359252834,0.006267401241840143,-0.009572796639296397,0.03297074088265805,-0.15199460828938355,0.016741069872037325
0.014660765716752367,0.013962634015954637,0.10611601852125524,8.97308475,0.34323275000000003,-3.6448049166666663,-0.002235811579959605,0.020807025046228375,0.0762762168592784,-0.014657042054347782,0.547825861180261,0.06931137389769569,0.014693447056355082,0.0013718407359652217,0.011332279799715775,-0.07313116017184877,-0.13934736985219895,0.01666715994265167
-0.0153588974175501,0.01117010721276371,0.08377580409572781,9.1201845,0.6210878333333334,-3.67749375,-0.002235811579959605,0.020807025046228375,0.0762762168592784,-0.014657042054347782,0.547825861180261,0.06931137389769569,0.008806169549858769,-0.0023532606123569636,0.0013607969194210192,-0.03640810741842612,0.13870642809218459,0.03291983913257501
-0.032812189937493394,0.016057029118347832,0.08098327729253688,9.193734375,0.34323275000000003,-3.742871416666666,-0.002235811579959605,0.020807025046228375,0.0762762168592784,-0.014657042054347782,0.547825861180261,0.06931137389769569,0.0038849576869002546,-0.0011967366336333375,0.006245116830499778,0.04944550601391338,0.2577298022335392,-0.05269046370504939
-0.04049163864626844,0.017453292519943295,0.06911503837897544,9.095667875,-0.17161637500000002,-3.6366327083333334,-0.002235811579959605,0.020807025046228375,0.0762762168592784,-0.014657042054347782,0.547825861180261,0.06931137389769569,-0.016573980178206923,-0.0016002831362087265,-0.010166988398700502,0.018515623507483075,-0.966251722979552,-0.35481088628801777
-0.013962634015954637,0.016057029118347832,0.06771877497737998,9.210078791666666,-0.16344416666666667,-3.6284604999999996,-0.002235811579959605,0.020807025046228375,0.0762762168592784,-0.014657042054347782,0.547825861180261,0.06931137389769569,-0.007887925871994274,-0.001060058365622515,-0.0024032857624789444,0.16398014871896172,0.012286912302534364,-0.01584773563650749
0.0020943951023931952,0.01815142422074103,0.07260569688296412,8.883190458333333,-0.18796079166666665,-3.5957716666666664,-0.002235811579959605,0.020807025046228375,0.0762762168592784,-0.014657042054347782,0.547825861180261,0.06931137389769569,-0.007062094994022465,0.0005780227929376307,-0.0028470702384453548,-0.07322639747579342,-0.061419464047837956,0.024988892971071062
0.016057029118347832,0.016755160819145562,0.07888888219014369,9.030290208333332,-0.06537766666666667,-3.6448049166666663,-0.002235811579959605,0.020807025046228375,0.0762762168592784,-0.014657042054347782,0.547825861180261,0.06931137389769569,-0.005134573696350614,-0.0004900368432314716,-0.010410967318999447,-0.077287956453395,-0.016962322118866363,0.05343205781256783
0.02652900463031381,0.017453292519943295,0.09983283321407566,9.185562166666665,-0.032688833333333334,-3.751043625,-0.002235811579959605,0.020807025046228375,0.0762762168592784,-0.014657042054347782,0.547825861180261,0.06931137389769569,0.002242146283027838,-0.00048352918428524436,0.009469939508229408,0.04122576440477597,-0.18450313711560432,-0.03628123752455135
0.021642082724729686,0.01815142422074103,0.08098327729253688,9.103840083333333,0.3350605416666666,-3.67749375,-0.002235811579959605,0.020807025046228375,0.0762762168592784,-0.014657042054347782,0.547825861180261,0.06931137389769569,0.007140179155078683,-0.0010345156184610699,-0.0007943874258904462,-0.05676836538717587,-0.16396451360242623,0.04532313487398655
0.00767944870877505,0.02024581932313422,0.08237954069413235,9.218250999999999,0.661948875,-3.7673880416666665,-0.002235811579959605,0.020807025046228375,0.0762762168592784,-0.014657042054347782,0.547825861180261,0.06931137389769569,0.013496633362166721,-0.0015651446255935165,0.008084864344421233,0.18023994155510448,0.10636330508038808,-0.04456222196362062
-0.019547687622336492,0.023038346126325153,0.06632251157578452,8.858673833333333,0.4494714583333333,-3.67749375,-0.002235811579959605,0.020807025046228375,0.0762762168592784,-0.014657042054347782,0.547825861180261,0.06931137389769569,-0.0004034362320553538,0.002594420026295078,-0.002054220989197951,-0.10168805411169393,0.22493459080884126,0.02912003448594786
-0.01884955592153876,0.017453292519943295,0.07051130178057091,9.062979041666667,0.0,-3.7346992083333332,-0.002235811579959605,0.020807025046228375,0.0762762168592784,-0.014657042054347782,0.547825861180261,0.06931137389769569,-0.003263161475598253,0.003809613183770995,0.00022679692065906182,-0.011896532004141033,0.04099049352244219,-0.024160468479963903
-0.012566370614359173,0.009773843811168246,0.07051130178057091,9.087495666666666,-0.08172208333333333,-3.6856659583333333,-0.002235811579959605,0.020807025046228375,0.0762762168592784,-0.014657042054347782,0.547825861180261,0.06931137389769569,-0.0044043595783288874,-0.0057635749557618954,-0.005082034576991192,0.041294857452815706,-0.1226319161600334,0.0043489534002294815
-0.003490658503988659,0.020943951023931952,0.08098327729253688,9.005773583333333,0.16344416666666667,-3.693838166666666,-0.002235811579959605,0.020807025046228375,0.0762762168592784,-0.014657042054347782,0.547825861180261,0.06931137389769569,-0.0036714477293341907,0.000667229170862652,-0.019167263011046556,0.08334839301978622,-0.9538801439670401,-0.3465270098530002
-0.004886921905584123,0.0153588974175501,0.09215338450530061,8.997601374999999,0.13892754166666665,-3.693838166666666,-0.002235811579959605,0.020807025046228375,0.0762762168592784,-0.014657042054347782,0.547825861180261,0.06931137389769569,-0.001656408950158796,-0.0040348437467228925,0.0019560113111833943,-0.1261663417621028,0.11810268492677209,0.04932396694569582
-0.0013962634015954637,0.023736477827122883,0.0879645943005142,9.250939833333334,-0.0980665,-3.7919046666666665,-0.002235811579959605,0.020807025046228375,0.0762762168592784,-0.014657042054347782,0.547825861180261,0.06931137389769569,-0.002503853370903467,-0.0018320760036532936,0.00060934140301933,0.029071392582115968,-0.04933906292243812,-0.03606057991912831
0.003490658503988659,0.02722713633111154,0.08726646259971647,9.193734375,0.0,-3.718354791666666,-0.002235811579959605,0.020807025046228375,0.0762762168592784,-0.014657042054347782,0.547825861180261,0.06931137389769569,0.0033163443304560863,0.002559184763390214,0.009197786656984572,0.11898848067111255,-0.06145520005148923,-0.07717282111233836
-0.003490658503988659,0.021642082724729686,0.06911503837897544,8.956740333333332,0.122583125,-3.563082833333333,-0.002235811579959605,0.020807025046228375,0.0762762168592784,-0.014657042054347782,0.547825861180261,0.06931137389769569,0.0005955116960797281,0.005057124430536668,-0.0009479545088266974,0.01668225736853201,-0.016261742473201245,0.02087006231732857
-0.0041887902047863905,0.01117010721276371,0.07120943348136866,8.9240515,0.15527195833333335,-3.6039438749999997,-0.002235811579959605,0.020807025046228375,0.0762762168592784,-0.014657042054347782,0.547825861180261,0.06931137389769569,-0.003049714333662727,0.0023349972681507183,0.00250686562818148,-0.08557038733168876,0.14715897406357561,0.08192219968133871
0.0013962634015954637,0.006981317007977318,0.06632251157578452,9.095667875,-0.13892754166666665,-3.7673880416666665,-0.002235811579959605,0.020807025046228375,0.0762762168592784,-0.014657042054347782,0.547825861180261,0.06931137389769569,-0.0060629633528238745,-0.006546734644321868,-0.0063440852928083125,-0.08528379789507352,-0.07768788032796121,-0.003655796725811196
0.013962634015954637,0.019547687622336492,0.07888888219014369,9.26728425,0.016344416666666667,-3.759215833333333,-0.002235811579959605,0.020807025046228375,0.0762762168592784,-0.014657042054347782,0.547825861180261,0.06931137389769569,0.0006315767374378148,-0.0021711568368835946,-0.0014535087559295248,0.06983759659059326,-0.08204579786273335,-0.01601780715795566
0.012566370614359173,0.023736477827122883,0.08237954069413235,9.128356708333332,0.17978858333333333,-3.726527,-0.002235811579959605,0.020807025046228375,0.0762762168592784,-0.014657042054347782,0.547825861180261,0.06931137389769569,0.0051755735852137994,0.0005586262581736466,-0.004513668536853902,0.08230566529311562,-0.13128547740038105,0.061965915637333155
0.0027925268031909274,0.02234021442552742,0.09145525280450287,8.964912541666667,0.44129925,-3.8491101249999997,-0.002235811579959605,0.020807025046228375,0.0762762168592784,-0.014657042054347782,0.547825861180261,0.06931137389769569,0.0087863407740689,-0.003066420749556035,0.0020982229035619747,-0.1712858349984704,0.08543804694971742,-0.0035192549748301557
-0.014660765716752367,0.027925268031909273,0.08726646259971647,9.308145291666667,0.269682875,-3.8409379166666664,-0.002235811579959605,0.020807025046228375,0.0762762168592784,-0.014657042054347782,0.547825861180261,0.06931137389769569,-0.0022398232487416034,-0.009769346939790148,-0.010406298441367553,0.2534368879613861,-0.8302743405315202,-0.49638333228200254
-0.01884955592153876,0.041189770347066175,0.08168140899333462,8.948568125,0.04903325,-3.546738416666667,-0.002235811579959605,0.020807025046228375,0.0762762168592784,-0.014657042054347782,0.547825861180261,0.06931137389769569,-0.0008610053162517969,0.010301658630198132,0.003152614308572728,0.04939576303905712,0.08582003466374608,0.02112977716827678
-0.016755160819145562,0.02024581932313422,0.07539822368615504,8.850501625,-0.122583125,-3.587599458333333,-0.002235811579959605,0.020807025046228375,0.0762762168592784,-0.014657042054347782,0.547825861180261,0.06931137389769569,-0.004607529014376092,0.0062881517331150015,-0.0019904999165613183,0.02495361671847183,-0.020538087929296053,0.016578327893624036
-0.008377580409572781,0.006981317007977318,0.07958701389094143,8.801468374999999,-0.08172208333333333,-3.6202882916666663,-0.002235811579959605,0.020807025046228375,0.0762762168592784,-0.014657042054347782,0.547825861180261,0.06931137389769569,-0.006886302562907435,-0.0011316381330663719,-0.0005334188041797472,-0.1754837884073572,0.044755915472685925,0.03698238620419831
0.005585053606381855,0.009773843811168246,0.08098327729253688,9.152873333333332,-0.17161637500000002,-3.693838166666666,-0.002235811579959605,0.020807025046228375,0.0762762168592784,-0.014657042054347782,0.547825861180261,0.06931137389769569,-0.006704702516538565,-0.007080095254432522,1.314483182490068e-05,-0.019930986496081077,-0.05755054857949269,0.020767250478419114
0.01884955592153876,0.023038346126325153,0.08098327729253688,9.193734375,-0.057205458333333334,-3.7346992083333332,-0.002235811579959605,0.020807025046228375,0.0762762168592784,-0.014657042054347782,0.547825861180261,0.06931137389769569,-1.8308975801377718e-05,3.26294043769218e-05,0.006192461580864601,-0.011709833140868174,-0.11472900323191806,0.008781729890984653
0.019547687622336492,0.023038346126325153,0.06911503837897544,9.218250999999999,0.17161637500000002,-3.751043625,-0.002235811579959605,0.020807025046228375,0.0762762168592784,-0.014657042054347782,0.547825861180261,0.06931137389769569,0.0030804543302715534,-0.007642554576611114,-0.002015282362922044,0.020842277338410316,-0.15939462485388042,0.004669350929860201
0.013264502315156905,0.03839724354387525,0.07330382858376185,9.177389958333332,0.4903325,-3.759215833333333,-0.002235811579959605,0.020807025046228375,0.0762762168592784,-0.014657042054347782,0.547825861180261,0.06931137389769569,0.010382426672928456,0.001996809796994066,0.0005524369318919783,0.11909277160468469,0.040674342108034514,-0.03172058456148282
-0.00767944870877505,0.03420845333908886,0.07190756518216637,8.940395916666665,0.40861041666666664,-3.693838166666666,-0.002235811579959605,0.020807025046228375,0.0762762168592784,-0.014657042054347782,0.547825861180261,0.06931137389769569,0.005781025055337514,0.00035283407762751786,0.0026382499349753416,-0.028006018234205416,0.09005120240345979,-0.023786608529347386
-0.01884955592153876,0.032812189937493394,0.06702064327658225,8.997601374999999,0.22882183333333334,-3.6448049166666663,-0.002235811579959605,0.020807025046228375,0.0762762168592784,-0.014657042054347782,0.547825861180261,0.06931137389769569,0.0013024560296810482,0.005707391756171196,-0.00792189003443326,0.08621947335392899,0.057380854605376536,-0.04854846064520933
-0.021642082724729686,0.021642082724729686,0.08307767239493008,8.825985,0.11441091666666667,-3.546738416666667,-0.002235811579959605,0.020807025046228375,0.0762762168592784,-0.014657042054347782,0.547825861180261,0.06931137389769569,-0.009132624003009803,0.0066994426543977165,-0.012817973202255108,0.006241672523383058,-0.8497015107804573,-0.3452010439622214
-0.01117010721276371,0.010471975511965976,0.08587019919812101,8.97308475,-0.016344416666666667,-3.5549106249999998,-0.002235811579959605,0.020807025046228375,0.0762762168592784,-0.014657042054347782,0.547825861180261,0.06931137389769569,-0.002611501414703288,0.0006869418186288352,0.0004404357502700346,-0.08961707657283749,0.02849042445899098,0.05324858132469044
-0.006283185307179587,0.009075712110370514,0.08517206749732328,9.152873333333332,-0.07354987499999999,-3.6611493333333334,-0.002235811579959605,0.020807025046228375,0.0762762168592784,-0.014657042054347782,0.547825861180261,0.06931137389769569,-0.005037734492083914,-0.004688848786595304,0.006746714915097395,-0.011965517678897829,-0.02067640827588632,-0.0037571678481867366
0.003490658503988659,0.017453292519943295,0.07190756518216637,9.177389958333332,-0.032688833333333334,-3.6529771249999996,-0.002235811579959605,0.020807025046228375,0.0762762168592784,-0.014657042054347782,0.547825861180261,0.06931137389769569,-0.002556758672157791,-0.0010542103229870797,0.001995775226578542,-0.08939260663116602,-0.04909743092530918,0.06992896282870935
0.009075712110370514,0.019547687622336492,0.06841690667817772,9.357178541666666,0.06537766666666667,-3.7919046666666665,-0.002235811579959605,0.020807025046228375,0.0762762168592784,-0.014657042054347782,0.547825861180261,0.06931137389769569,0.00011317986282300964,-0.005934180874575551,-0.005811566922990549,0.1639613418409154,-0.13482117356288395,-0.06895200454719326
0.009075712110370514,0.031415926535897934,0.07958701389094143,9.030290208333332,0.3350605416666666,-3.6529771249999996,-0.002235811579959605,0.020807025046228375,0.0762762168592784,-0.014657042054347782,0.547825861180261,0.06931137389769569,0.004676573083048095,0.0009344169601385441,0.001992501438279683,-0.020023097614036665,-0.012473817259501484,0.025218989697433792
-0.0006981317007977319,0.029321531433504733,0.07609635538695278,9.07115125,0.35957716666666667,-3.702010375,-0.002235811579959605,0.020807025046228375,0.0762762168592784,-0.014657042054347782,0.547825861180261,0.06931137389769569,0.004858737025222212,0.0028146759249407516,-0.0023705890882131726,0.08642136396699092,0.07330684746952748,-0.07699342901670918
-0.010471975511965976,0.023736477827122883,0.08098327729253688,8.899534874999999,0.21247741666666667,-3.546738416666667,-0.002235811579959605,0.020807025046228375,0.0762762168592784,-0.014657042054347782,0.547825861180261,0.06931137389769569,-0.001724093653685582,0.00015175274742142874,-0.00039573471939707063,-0.06498975851073131,0.12246141292842691,0.02503470484248444
-0.006981317007977318,0.023038346126325153,0.08168140899333462,9.030290208333332,-0.032688833333333334,-3.5957716666666664,-0.002235811579959605,0.020807025046228375,0.0762762168592784,-0.014657042054347782,0.547825861180261,0.06931137389769569,-0.005073113267294982,0.0041023615301560516,-0.009450225907617014,0.03708672113785518,-0.045232566173792836,0.012697602282854794
0.003490658503988659,0.014660765716752367,0.10122909661567112,8.956740333333332,0.057205458333333334,-3.6202882916666663,-0.002235811579959605,0.020807025046228375,0.0762762168592784,-0.014657042054347782,0.547825861180261,0.06931137389769569,0.0036550047324349147,0.0008026232877437287,0.008555974799339785,0.0167211905380933,-0.07415606051875591,0.012590294321746399
-0.0041887902047863905,0.012566370614359173,0.08377580409572781,8.9240515,0.20430520833333332,-3.6448049166666663,-0.002235811579959605,0.020807025046228375,0.0762762168592784,-0.014657042054347782,0.547825861180261,0.06931137389769569,-0.004906401565742682,0.00346681616756524,-0.011738627220074438,-0.10139167358752804,-0.8751178441138635,-0.3002557582425855
-0.0020943951023931952,0.008377580409572781,0.08517206749732328,9.26728425,0.15527195833333335,-3.742871416666666,-0.002235811579959605,0.020807025046228375,0.0762762168592784,-0.014657042054347782,0.547825861180261,0.06931137389769569,0.0023335979829275538,-0.0025370825253466373,0.009630260016890687,0.06976620720100066,0.08975402854374485,0.00427218153524159
-0.006981317007977318,0.012566370614359173,0.06632251157578452,9.128356708333332,-0.024516625,-3.751043625,-0.002235811579959605,0.020807025046228375,0.0762762168592784,-0.014657042054347782,0.547825861180261,0.06931137389769569,-0.0036934275139454006,-0.004767925604462652,-0.003228339412385108,-0.02015365799825132,-0.15919881345394482,0.033085161153876504
0.0,0.02234021442552742,0.07260569688296412,9.16921775,0.29419949999999995,-3.8164212916666664,-0.002235811579959605,0.020807025046228375,0.0762762168592784,-0.014657042054347782,0.547825861180261,0.06931137389769569,0.0028029012536918982,-9.720779095979784e-05,0.000698800412414463,0.13952805291667267,0.0858940854301157,-0.12218705499284578
-0.005585053606381855,0.02234021442552742,0.07120943348136866,8.891362666666666,0.122583125,-3.571255041666667,-0.002235811579959605,0.020807025046228375,0.0762762168592784,-0.014657042054347782,0.547825861180261,0.06931137389769569,0.0025441152723673496,0.0010524982452188257,0.00277671638832097,-0.15892745692038582,-0.004050282631218116,0.12720708733464853
-0.010471975511965976,0.02024581932313422,0.06632251157578452,9.210078791666666,0.13075533333333333,-3.8245934999999998,-0.002235811579959605,0.020807025046228375,0.0762762168592784,-0.014657042054347782,0.547825861180261,0.06931137389769569,-0.0026441980327955522,-0.001756950667040972,-0.006618688172449737,0.09434533589432184,0.14317056882364446,-0.11379649582776902
-0.005585053606381855,0.023736477827122883,0.07958701389094143,9.022118,-0.15527195833333335,-3.5957716666666664,-0.002235811579959605,0.020807025046228375,0.0762762168592784,-0.014657042054347782,0.547825861180261,0.06931137389769569,-0.004311996191355355,0.001494620935943172,-0.003029757225806382,-0.019936795442665262,-0.11870808483336938,0.05766348476787599
0.003490658503988659,0.02024581932313422,0.08517206749732328,9.062979041666667,0.08172208333333333,-3.7101825833333333,-0.002235811579959605,0.020807025046228375,0.0762762168592784,-0.014657042054347782,0.547825861180261,0.06931137389769569,-0.001691737259501158,0.0033149954878866263,-0.000675833868274783,0.04122324205469346,-0.016902615384842078,-0.044499203920950095
0.006981317007977318,0.013264502315156905,0.08726646259971647,8.981256958333333,0.11441091666666667,-3.6202882916666663,-0.002235811579959605,0.020807025046228375,0.0762762168592784,-0.014657042054347782,0.547825861180261,0.06931137389769569,0.0031064576964519876,0.0013013249820360716,0.0033349067516584186,-0.0772526784152581,-0.11055257425362931,0.06959094129668231
0.0006981317007977319,0.010471975511965976,0.08098327729253688,9.136528916666666,0.3350605416666666,-3.759215833333333,-0.002235811579959605,0.020807025046228375,0.0762762168592784,-0.014657042054347782,0.547825861180261,0.06931137389769569,0.001827490704577727,-0.004758486199333884,0.005022275565487605,-0.056789522686964154,0.07749139239958011,0.024940472520703506
-0.0027925268031909274,0.019547687622336492,0.07051130178057091,9.250939833333334,0.17978858333333333,-3.8082490833333327,-0.002235811579959605,0.020807025046228375,0.0762762168592784,-0.014657042054347782,0.547825861180261,0.06931137389769569,-0.0034676261572338827,0.0012111687037353856,-0.010320365875026915,0.20642071817550994,-0.8770921992663825,-0.3880118943335793
-0.004886921905584123,0.017453292519943295,0.06981317007977318,8.997601374999999,0.17978858333333333,-3.751043625,-0.002235811579959605,0.020807025046228375,0.0762762168592784,-0.014657042054347782,0.547825861180261,0.06931137389769569,0.0007891032261103563,-0.004268060524820096,-0.0007005095678322026,0.0045099072109612845,0.020529428997525717,-0.06085907751854315
-0.006283185307179587,0.02583087292951608,0.07120943348136866,8.989429166666666,0.13892754166666665,-3.6284604999999996,-0.002235811579959605,0.020807025046228375,0.0762762168592784,-0.014657042054347782,0.547825861180261,0.06931137389769569,0.0034288374592495513,0.004786241038139967,-0.003925231104099099,-0.0362753664393423,-0.028664694506743325,0.05365839814342973
-0.013264502315156905,0.016057029118347832,0.07888888219014369,9.062979041666667,0.196133,-3.7346992083333332,-0.002235811579959605,0.020807025046228375,0.0762762168592784,-0.014657042054347782,0.547825861180261,0.06931137389769569,-0.0036778209801515936,-0.005184599605150208,-0.0025713485854253902,-0.05677497216800492,0.1265921997004163,0.012565397270736398
-0.006283185307179587,0.02652900463031381,0.08447393579652555,9.177389958333332,-0.057205458333333334,-3.759215833333333,-0.002235811579959605,0.020807025046228375,0.0762762168592784,-0.014657042054347782,0.547825861180261,0.06931137389769569,-0.00458147971903333,-0.0014846146159015828,-0.004673492667576957,0.07815787734662377,0.011770051180950859,-0.044223900217494054
0.003490658503988659,0.028623399732707,0.09354964790689606,9.022118,-0.08172208333333333,-3.6693215416666662,-0.002235811579959605,0.020807025046228375,0.0762762168592784,-0.014657042054347782,0.547825861180261,0.06931137389769569,-0.002835155154505352,0.001953943881520965,0.0032736947698528466,0.0168336452042539,-0.029010542848703677,-0.040234842477905076
0.009075712110370514,0.025132741228718346,0.08726646259971647,8.989429166666666,-0.024516625,-3.587599458333333,-0.002235811579959605,0.020807025046228375,0.0762762168592784,-0.014657042054347782,0.547825861180261,0.06931137389769569,0.0007684531795250951,0.00207521734567173,0.0045952162632647104,-0.0813431764939829,-0.11882525683236551,0.041375186405794726
0.00767944870877505,0.020943951023931952,0.07819075048934597,9.152873333333332,0.21247741666666667,-3.6693215416666662,-0.002235811579959605,0.020807025046228375,0.0762762168592784,-0.014657042054347782,0.547825861180261,0.06931137389769569,-1.5943620322801365e-05,0.0012879769732061478,0.0014706822538903307,0.0412563005116976,-0.00844505069636812,0.03731506062474928
0.00767944870877505,0.017453292519943295,0.07609635538695278,9.07115125,0.22882183333333334,-3.742871416666666,-0.002235811579959605,0.020807025046228375,0.0762762168592784,-0.014657042054347782,0.547825861180261,0.06931137389769569,0.005658518418284056,-0.002226407497934293,0.006065977958798757,0.008607498217806077,0.03270322812165911,-0.06504566734778114
-0.003490658503988659,0.021642082724729686,0.0635299847725936,9.054806833333332,0.16344416666666667,-3.6121160833333334,-0.002235811579959605,0.020807025046228375,0.0762762168592784,-0.014657042054347782,0.547825861180261,0.06931137389769569,-0.00018634996043266462,0.0025586745749102847,-0.002978959351061488,-0.02410149676183577,-0.01208113054248645,0.0945142018005182
-0.003490658503988659,0.016755160819145562,0.06981317007977318,9.103840083333333,0.18796079166666665,-3.800076875,-0.002235811579959605,0.020807025046228375,0.0762762168592784,-0.014657042054347782,0.547825861180261,0.06931137389769569,-0.0014988775975453797,-0.003143233436673102,-0.006204059660237156,0.09017725780089565,-0.8623157818554807,-0.46803240544216174
-0.009773843811168246,0.024434609527920613,0.06841690667817772,9.054806833333332,0.20430520833333332,-3.5957716666666664,-0.002235811579959605,0.020807025046228375,0.0762762168592784,-0.014657042054347782,0.547825861180261,0.06931137389769569,0.001000316633024452,-0.0010913707367627,-0.008566389620119814,-0.0730721846979713,0.044837382026436855,0.09853731348532463
-0.01117010721276371,0.02652900463031381,0.08517206749732328,9.201906583333333,0.11441091666666667,-3.7919046666666665,-0.002235811579959605,0.020807025046228375,0.0762762168592784,-0.014657042054347782,0.547825861180261,0.06931137389769569,-0.0003424151160733727,-0.0024720934261405225,0.001244033635047812,0.19661085561308358,0.04471789176545042,-0.16277596818289752
-0.010471975511965976,0.0307177948351002,0.08307767239493008,8.809640583333332,0.024516625,-3.4650163333333333,-0.002235811579959605,0.020807025046228375,0.0762762168592784,-0.014657042054347782,0.547825861180261,0.06931137389769569,-0.0029394727406699297,0.0064129936915956354,-2.396816455561018e-05,-0.1506497182283945,0.04465951071914008,0.08216708884307153
-0.004886921905584123,0.01815142422074103,0.08377580409572781,9.112012291666666,-0.06537766666666667,-3.6284604999999996,-0.002235811579959605,0.020807025046228375,0.0762762168592784,-0.014657042054347782,0.547825861180261,0.06931137389769569,-0.005531658786244948,-0.002102120933479112,-0.0026844142540154428,0.053501600776685,-0.053393143619211395,-0.019881223484333084
0.006283185307179587,0.02234021442552742,0.08866272600131193,9.005773583333333,0.04086104166666667,-3.587599458333333,-0.002235811579959605,0.020807025046228375,0.0762762168592784,-0.014657042054347782,0.547825861180261,0.06931137389769569,0.00034549886775569306,0.006017402109554861,0.00754344580288864,0.01673161333511845,-0.05747036190566548,0.029018542352239583
0.005585053606381855,0.009773843811168246,0.07400196028455958,8.97308475,0.15527195833333335,-3.6448049166666663,-0.002235811579959605,0.020807025046228375,0.0762762168592784,-0.014657042054347782,0.547825861180261,0.06931137389769569,0.0019117613717192453,-0.003463070077993767,0.001426395432362148,-0.03235813262166818,0.00817224868782537,0.02883796372298421
0.0013962634015954637,0.016057029118347832,0.07120943348136866,9.038462416666666,0.13892754166666665,-3.702010375,-0.002235811579959605,0.020807025046228375,0.0762762168592784,-0.014657042054347782,0.547825861180261,0.06931137389769569,0.0018500278168109064,0.0009479210787811723,0.003474969391868243,0.0004053043448743599,0.040996536326485415,-0.01187102433362194
-0.0020943951023931952,0.013962634015954637,0.06422811647339133,9.038462416666666,0.057205458333333334,-3.67749375,-0.002235811579959605,0.020807025046228375,0.0762762168592784,-0.014657042054347782,0.547825861180261,0.06931137389769569,-0.0029170395627463558,-0.003248850344586863,-0.007121641803337972,-0.1261956646470339,-0.04915544096760736,0.07398491315831665
0.003490658503988659,0.02024581932313422,0.07888888219014369,9.291800875,0.15527195833333335,-3.8245934999999998,-0.002235811579959605,0.020807025046228375,0.0762762168592784,-0.014657042054347782,0.547825861180261,0.06931137389769569,0.002638159062587939,-0.0016133009541601379,-0.00276031467150861,0.22120168180341043,-0.06148501743907095,-0.13437698527780056
-0.0013962634015954637,0.023736477827122883,0.08447393579652555,8.850501625,0.2778550833333333,-3.5549106249999998,-0.002235811579959605,0.020807025046228375,0.0762762168592784,-0.014657042054347782,0.547825861180261,0.06931137389769569,-0.0026037080501356657,0.003646032604354032,-0.010570918802614545,-0.10678664771548743,-0.7717025858391128,-0.24451029332000046
-0.006981317007977318,0.01815142422074103,0.08866272600131193,9.16921775,0.17161637500000002,-3.77556025,-0.002235811579959605,0.020807025046228375,0.0762762168592784,-0.014657042054347782,0.547825861180261,0.06931137389769569,0.0010913009592048888,-0.0034204171548495982,0.0008763065290365573,0.13114369201466253,0.08127252214642694,-0.07301969205700488
-0.009773843811168246,0.024434609527920613,0.08726646259971647,8.907707083333333,0.008172208333333333,-3.6284604999999996,-0.002235811579959605,0.020807025046228375,0.0762762168592784,-0.014657042054347782,0.547825861180261,0.06931137389769569,-0.0036972080559489326,-0.0004746188266624194,-0.00012557824628086413,-0.15485670097517643,-0.02876077666558917,0.02921409505022016
-0.0020943951023931952,0.025132741228718346,0.0879645943005142,9.218250999999999,0.06537766666666667,-3.6856659583333333,-0.002235811579959605,0.020807025046228375,0.0762762168592784,-0.014657042054347782,0.547825861180261,0.06931137389769569,-0.0016827055766895083,0.0013111341820244598,0.003919339740699202,0.15583619872801832,-0.03707027108450522,-0.02818728683622807
0.0013962634015954637,0.02234021442552742,0.08028514559173915,8.907707083333333,0.13892754166666665,-3.6284604999999996,-0.002235811579959605,0.020807025046228375,0.0762762168592784,-0.014657042054347782,0.547825861180261,0.06931137389769569,0.0033236009805187607,0.006200474815280595,0.003955476584268868,-0.020055820472408545,-0.02460597697458432,0.020975114899758767
-0.005585053606381855,0.009773843811168246,0.07190756518216637,8.948568125,0.18796079166666665,-3.6693215416666662,-0.002235811579959605,0.020807025046228375,0.0762762168592784,-0.014657042054347782,0.547825861180261,0.06931137389769569,-0.002603527643821528,-0.0011147989020336758,0.003596205779090369,-0.10587794796846682,0.13896038462324273,0.045188338881164476
0.0,0.011868238913561441,0.06562437987498679,9.161045541666667,-0.08989429166666667,-3.759215833333333,-0.002235811579959605,0.020807025046228375,0.0762762168592784,-0.014657042054347782,0.547825861180261,0.06931137389769569,-0.0031003852647058915,-0.002686319985399206,-0.005503487763429998,-0.011934558781419273,-0.07760210030757839,-0.00789239210735525
0.006283185307179587,0.016755160819145562,0.07609635538695278,9.185562166666665,0.06537766666666667,-3.742871416666666,-0.002235811579959605,0.020807025046228375,0.0762762168592784,-0.014657042054347782,0.547825861180261,0.06931137389769569,0.0026515777571816065,-0.006708230759942682,0.002372975607189239,-0.007631111561538199,-0.07365253182986696,-0.003559706811390924
0.0006981317007977319,0.030019663134302467,0.07190756518216637,9.201906583333333,0.21247741666666667,-3.7346992083333332,-0.002235811579959605,0.020807025046228375,0.0762762168592784,-0.014657042054347782,0.547825861180261,0.06931137389769569,0.0036014951791959625,0.0027714907630406248,-0.008283932943497843,0.1190100938149383,-0.06144941117408078,-0.036245217238185704
-0.006283185307179587,0.024434609527920613,0.08866272600131193,8.964912541666667,0.3350605416666666,-3.6611493333333334,-0.002235811579959605,0.020807025046228375,0.0762762168592784,-0.014657042054347782,0.547825861180261,0.06931137389769569,7.333059777686232e-05,-0.003897168611217418,0.005563485455767603,-0.04453455968732031,0.13461764729037518,0.008894734676056764
-0.006283185307179587,0.032114058236695664,0.07749261878854824,9.054806833333332,0.06537766666666667,-3.67749375,-0.002235811579959605,0.020807025046228375,0.0762762168592784,-0.014657042054347782,0.547825861180261,0.06931137389769569,-0.005504034917330739,0.0072629886464768145,-0.014929417955956025,0.04515994605916629,-0.7575208118950661,-0.3384490882152465
-0.005585053606381855,0.01815142422074103,0.09075712110370514,9.062979041666667,-0.016344416666666667,-3.702010375,-0.002235811579959605,0.020807025046228375,0.0762762168592784,-0.014657042054347782,0.547825861180261,0.06931137389769569,-0.0009934299692725297,-0.00421771155756552,0.006045077832663852,0.025072253734658243,-0.07366938208775543,-0.028167184396948885
-0.003490658503988659,0.02652900463031381,0.07888888219014369,9.013945791666666,0.13075533333333333,-3.6448049166666663,-0.002235811579959605,0.020807025046228375,0.0762762168592784,-0.014657042054347782,0.547825861180261,0.06931137389769569,-0.0008529803323448088,0.007873944456747764,0.00032049348363237437,0.07802799189553689,-0.036924303880643515,-0.01593816611467135
-0.0020943951023931952,0.010471975511965976,0.07819075048934597,8.858673833333333,0.20430520833333332,-3.6121160833333334,-0.002235811579959605,0.020807025046228375,0.0762762168592784,-0.014657042054347782,0.547825861180261,0.06931137389769569,0.0025611058186459815,0.001190931841437924,0.002173450647998685,-0.10994419679807892,0.1347016866088069,0.06572787933860906
-0.006981317007977318,0.00767944870877505,0.07400196028455958,9.079323458333333,-0.06537766666666667,-3.742871416666666,-0.002235811579959605,0.020807025046228375,0.0762762168592784,-0.014657042054347782,0.547825861180261,0.06931137389769569,-0.004325469074260932,-0.004146036168429666,0.0012058517855349292,0.008478855201960912,5.383150634808562e-05,-0.01195004695389624
0.0020943951023931952,0.016057029118347832,0.07190756518216637,9.062979041666667,-0.06537766666666667,-3.718354791666666,-0.002235811579959605,0.020807025046228375,0.0762762168592784,-0.014657042054347782,0.547825861180261,0.06931137389769569,-0.0027311373941248137,-0.003314530655760898,-0.0019337220042875255,-0.12226938208466515,-0.12674074903073154,0.041252320562517646
0.006981317007977318,0.02234021442552742,0.07539822368615504,9.308145291666667,0.18796079166666665,-3.800076875,-0.002235811579959605,0.020807025046228375,0.0762762168592784,-0.014657042054347782,0.547825861180261,0.06931137389769569,0.00328741834091304,-0.0037326147651606132,-0.0015596399565830268,0.15178711484503424,-0.11469752804034435,-0.09757121463842282
0.0006981317007977319,0.029321531433504733,0.07888888219014369,9.005773583333333,0.416782625,-3.6039438749999997,-0.002235811579959605,0.020807025046228375,0.0762762168592784,-0.014657042054347782,0.547825861180261,0.06931137389769569,0.005061354708305066,0.0017627670968499993,-0.0012761772292398605,-0.07723952780786514,0.1592931097444264,0.04570150592819329
-0.009773843811168246,0.02583087292951608,0.08168140899333462,9.161045541666667,0.0980665,-3.693838166666666,-0.002235811579959605,0.020807025046228375,0.0762762168592784,-0.014657042054347782,0.547825861180261,0.06931137389769569,-0.0014353916685483322,-0.0026729964911496474,0.0028337029434497454,0.11084841617538452,0.061212834369852615,-0.03615978668729285
-0.006981317007977318,0.0307177948351002,0.07609635538695278,8.940395916666665,-0.024516625,-3.6202882916666663,-0.002235811579959605,0.020807025046228375,0.0762762168592784,-0.014657042054347782,0.547825861180261,0.06931137389769569,-0.004058313921419606,0.002705381841644506,-0.0025860476354434263,-0.08938447412705287,-0.07375161165938389,0.012934373593499285
0.0013962634015954637,0.025132741228718346,0.08168140899333462,9.1201845,0.122583125,-3.6448049166666663,-0.002235811579959605,0.020807025046228375,0.0762762168592784,-0.014657042054347782,0.547825861180261,0.06931137389769569,-0.002572092344835912,0.002794510944065589,-0.0024914746924261056,0.16926164991065806,-0.8452033900788596,-0.3740903089644335
0.0013962634015954637,0.021642082724729686,0.08168140899333462,8.87501825,0.22882183333333334,-3.6039438749999997,-0.002235811579959605,0.020807025046228375,0.0762762168592784,-0.014657042054347782,0.547825861180261,0.06931137389769569,0.002989392454206085,0.005046134861080665,0.006614577660361883,-0.02406988199199885,0.044837501986721345,0.008687314540552856
-0.0041887902047863905,0.01117010721276371,0.06841690667817772,8.9240515,0.13892754166666665,-3.6202882916666663,-0.002235811579959605,0.020807025046228375,0.0762762168592784,-0.014657042054347782,0.547825861180261,0.06931137389769569,0.001096722745851673,0.003420625914095053,-4.477386301112211e-05,-0.0814348235915104,0.0982961718626804,0.04920811989739798
-0.006283185307179587,0.0041887902047863905,0.06911503837897544,9.087495666666666,-0.057205458333333334,-3.718354791666666,-0.002235811579959605,0.020807025046228375,0.0762762168592784,-0.014657042054347782,0.547825861180261,0.06931137389769569,-0.004114969841266138,-0.005818804220907773,-0.003163150728945809,-0.032223106028461845,-0.05317496004606099,0.004276731138528826
0.0013962634015954637,0.0153588974175501,0.07539822368615504,9.152873333333332,0.04903325,-3.726527,-0.002235811579959605,0.020807025046228375,0.0762762168592784,-0.014657042054347782,0.547825861180261,0.06931137389769569,-0.002069005072732183,-0.0030728365611966974,-0.0034242010986339257,-0.044565658835998355,-0.14325947024868474,0.037098877726933384
0.005585053606381855,0.021642082724729686,0.08237954069413235,9.242767624999999,0.3350605416666666,-3.800076875,-0.002235811579959605,0.020807025046228375,0.0762762168592784,-0.014657042054347782,0.547825861180261,0.06931137389769569,0.006236338763497124,-0.004074750852541002,-0.000392080569528316,0.1190008935423752,0.02013019767674408,-0.06064380396671078
-0.006283185307179587,0.030019663134302467,0.08307767239493008,9.005773583333333,0.29419949999999995,-3.67749375,-0.002235811579959605,0.020807025046228375,0.0762762168592784,-0.014657042054347782,0.547825861180261,0.06931137389769569,0.003765162359478118,0.001162289357286072,0.0010281634971219325,-0.05272430153904688,0.1102148126839159,0.02115103062230348
-0.013962634015954637,0.02722713633111154,0.08168140899333462,9.112012291666666,0.07354987499999999,-3.718354791666666,-0.002235811579959605,0.020807025046228375,0.0762762168592784,-0.014657042054347782,0.547825861180261,0.06931137389769569,-0.003756560020168932,0.0008770389386699893,-0.0023543075607653507,0.037308721040666924,0.024328468690944502,-0.032212908677455576
-0.006283185307179587,0.025132741228718346,0.08587019919812101,9.038462416666666,0.024516625,-3.6529771249999996,-0.002235811579959605,0.020807025046228375,0.0762762168592784,-0.014657042054347782,0.547825861180261,0.06931137389769569,-0.003926423196107278,-0.0019219493017779293,0.0014293177844840195,0.037134834323516976,-0.032844564031388815,-0.007614278438826103
0.0013962634015954637,0.028623399732707,0.08377580409572781,8.964912541666667,0.08989429166666667,-3.6366327083333334,-0.002235811579959605,0.020807025046228375,0.0762762168592784,-0.014657042054347782,0.547825861180261,0.06931137389769569,0.0021290849492595723,0.0035274997585751982,0.004406949914412409,-0.052512222522045696,-0.03701710166123652,0.00466849868169143
-0.0027925268031909274,0.021642082724729686,0.0747000919853573,9.07115125,0.16344416666666667,-3.6448049166666663,-0.002235811579959605,0.020807025046228375,0.0762762168592784,-0.014657042054347782,0.547825861180261,0.06931137389769569,-0.002042021048696461,0.004048703582432799,0.0024924057028905353,0.08117976042992825,-0.6679285033237106,-0.37788923522851076
-0.004886921905584123,0.013264502315156905,0.06911503837897544,8.97308475,-0.016344416666666667,-3.6039438749999997,-0.002235811579959605,0.020807025046228375,0.0762762168592784,-0.014657042054347782,0.547825861180261,0.06931137389769569,-0.0028807193350542273,-0.0007897720204443835,0.00040271178197645596,-0.07729951458056636,0.004163381454891918,0.08196632758407763
0.0013962634015954637,0.0153588974175501,0.06841690667817772,9.128356708333332,-0.024516625,-3.7673880416666665,-0.002235811579959605,0.020807025046228375,0.0762762168592784,-0.014657042054347782,0.547825861180261,0.06931137389769569,-0.0035575233602619786,-0.001517186312389506,-0.006193231611666108,-0.024009394135770492,-0.1390984762349216,0.029032849236950774
0.008377580409572781,0.01815142422074103,0.08098327729253688,9.177389958333332,0.2533384583333333,-3.8245934999999998,-0.002235811579959605,0.020807025046228375,0.0762762168592784,-0.014657042054347782,0.547825861180261,0.06931137389769569,0.005215103006930937,-0.006485109700012797,0.00379529631542179,0.008517167887503563,-0.053180847513472934,-0.05667920912082844
-0.0020943951023931952,0.0307177948351002,0.07330382858376185,9.161045541666667,0.35957716666666667,-3.7101825833333333,-0.002235811579959605,0.020807025046228375,0.0762762168592784,-0.014657042054347782,0.547825861180261,0.06931137389769569,0.007061161653644128,0.0017655260502527823,-0.003061503785911662,0.01694557768264791,0.06936557366206528,0.004725260378703707
-0.016057029118347832,0.02722713633111154,0.08028514559173915,9.128356708333332,0.220649625,-3.718354791666666,-0.002235811579959605,0.020807025046228375,0.0762762168592784,-0.014657042054347782,0.547825861180261,0.06931137389769569,0.0006632147811106169,-0.0023791120656816793,0.002763544564679664,0.06991908213161684,0.12262053716160774,-0.044263563450420824
-0.017453292519943295,0.031415926535897934,0.0747000919853573,8.989429166666666,-0.024516625,-3.6284604999999996,-0.002235811579959605,0.020807025046228375,0.0762762168592784,-0.014657042054347782,0.547825861180261,0.06931137389769569,-0.0052917217431815945,0.001669433052352383,-0.0010364669587100085,-0.01572084028417318,-0.0245359607054986,0.02522120154384878
-0.006981317007977318,0.027925268031909273,0.0767944870877505,9.022118,0.024516625,-3.67749375,-0.002235811579959605,0.020807025046228375,0.0762762168592784,-0.014657042054347782,0.547825861180261,0.06931137389769569,-0.002221645863253432,0.0034325884988171494,-0.001399516688448845,0.053580851279311746,-0.02872190556525786,-0.09342172153764491
-0.0020943951023931952,0.020943951023931952,0.07958701389094143,8.915879291666666,0.08172208333333333,-3.489532958333333,-0.002235811579959605,0.020807025046228375,0.0762762168592784,-0.014657042054347782,0.547825861180261,0.06931137389769569,0.0007586577692808244,0.002625032645124799,0.00499859213529914,-0.04463387818081068,0.02869813794365076,0.09031890910699077
-0.003490658503988659,0.0153588974175501,0.06981317007977318,9.005773583333333,0.024516625,-3.6693215416666662,-0.002235811579959605,0.020807025046228375,0.0762762168592784,-0.014657042054347782,0.547825861180261,0.06931137389769569,-0.0028068782084518505,0.0016435817892384323,-0.0012699581390599403,0.008463279604500789,0.024493308608478405,-0.0038563351008031655
0.0020943951023931952,0.011868238913561441,0.07260569688296412,8.989429166666666,-0.024516625,-3.6611493333333334,-0.002235811579959605,0.020807025046228375,0.0762762168592784,-0.014657042054347782,0.547825861180261,0.06931137389769569,-0.007276984767430742,0.00156078158729068,-0.0025641051858645214,-0.05882561574496573,-0.81211989461276,-0.3102302907061222
0.01117010721276371,0.011868238913561441,0.07958701389094143,9.128356708333332,0.11441091666666667,-3.759215833333333,-0.002235811579959605,0.020807025046228375,0.0762762168592784,-0.014657042054347782,0.547825861180261,0.06931137389769569,0.004408650181405291,-0.004197745104580275,0.0003448828364310492,-0.11401592099772587,-0.06142852026498476,0.01668436210505125
0.0020943951023931952,0.02024581932313422,0.07958701389094143,9.357178541666666,0.23699404166666665,-3.7919046666666665,-0.002235811579959605,0.020807025046228375,0.0762762168592784,-0.014657042054347782,0.547825861180261,0.06931137389769569,0.0035121462499562773,-0.005688014705793039,0.000733409394910378,0.18030321328916032,-0.05340749075843719,-0.07304604202007052
-0.004886921905584123,0.031415926535897934,0.07819075048934597,8.997601374999999,0.34323275000000003,-3.6448049166666663,-0.002235811579959605,0.020807025046228375,0.0762762168592784,-0.014657042054347782,0.547825861180261,0.06931137389769569,0.004384480428168678,0.0033771083962474352,-0.0005915602019049802,-0.036298628499364584,0.09800427725913301,0.0332707566237181
-0.013962634015954637,0.024434609527920613,0.07888888219014369,9.07115125,0.14709974999999997,-3.7101825833333333,-0.002235811579959605,0.020807025046228375,0.0762762168592784,-0.014657042054347782,0.547825861180261,0.06931137389769569,-0.0009685867711587738,-0.0010267707397357433,-0.004329201057528477,0.06589308923375896,0.04071008438150397,-0.03216972266681631
-0.011868238913561441,0.02652900463031381,0.0879645943005142,8.940395916666665,0.06537766666666667,-3.6448049166666663,-0.002235811579959605,0.020807025046228375,0.0762762168592784,-0.014657042054347782,0.547825861180261,0.06931137389769569,-0.0016135253326515805,-0.0006036313417196868,0.002541466794151544,-0.0403203638228516,0.028353005115395298,-0.003369529862104526
-0.008377580409572781,0.02722713633111154,0.08307767239493008,9.022118,0.008172208333333333,-3.6366327083333334,-0.002235811579959605,0.020807025046228375,0.0762762168592784,-0.014657042054347782,0.547825861180261,0.06931137389769569,-0.003033963439132195,0.00638984576815562,-0.000758771259945069,-0.03633875816431436,0.020348509248063733,-0.023997384130076845
-0.0027925268031909274,0.013962634015954637,0.08447393579652555,9.095667875,-0.032688833333333334,-3.587599458333333,-0.002235811579959605,0.020807025046228375,0.0762762168592784,-0.014657042054347782,0.547825861180261,0.06931137389769569,-0.0014282608394608244,0.0005592810317907977,0.0036790543542665668,0.09427405507884824,0.0119535677077555,0.020719703693415557
0.0006981317007977319,0.012566370614359173,0.07749261878854824,8.907707083333333,-0.057205458333333334,-3.6284604999999996,-0.002235811579959605,0.020807025046228375,0.0762762168592784,-0.014657042054347782,0.547825861180261,0.06931137389769569,-0.004269403656354436,0.0042402035765144635,0.001277000349058209,-0.11823805754402467,-0.03272996332992288,0.03699905888976215
0.009075712110370514,0.0041887902047863905,0.07539822368615504,9.144701125,0.008172208333333333,-3.702010375,-0.002235811579959605,0.020807025046228375,0.0762762168592784,-0.014657042054347782,0.547825861180261,0.06931137389769569,-0.0018398042486344193,-0.007532486538315375,-0.003104475071535254,-0.03634433929082856,-0.13530826383339875,0.02879908850807205
0.012566370614359173,0.01884955592153876,0.08098327729253688,9.218250999999999,0.2778550833333333,-3.759215833333333,-0.002235811579959605,0.020807025046228375,0.0762762168592784,-0.014657042054347782,0.547825861180261,0.06931137389769569,0.0038740360489267667,-7.976405818735881e-05,0.006425018577317435,0.004564197588029495,-0.7327378183714346,-0.39934775942644735
0.0,0.020943951023931952,0.06981317007977318,9.185562166666665,0.2860272916666666,-3.702010375,-0.002235811579959605,0.020807025046228375,0.0762762168592784,-0.014657042054347782,0.547825861180261,0.06931137389769569,0.004283322727592522,-0.004466698922307086,-0.003288160929911514,0.03726388634424652,-0.045075858512348,0.053638485276434104
-0.009075712110370514,0.029321531433504733,0.0767944870877505,9.112012291666666,0.3759215833333333,-3.8082490833333327,-0.002235811579959605,0.020807025046228375,0.0762762168592784,-0.014657042054347782,0.547825861180261,0.06931137389769569,0.0021113623215793594,-0.0012597169508948845,0.0019028962376614082,0.10678510511677142,0.10234240140688956,-0.08909706433676129
-0.013264502315156905,0.031415926535897934,0.07330382858376185,8.899534874999999,0.17161637500000002,-3.6284604999999996,-0.002235811579959605,0.020807025046228375,0.0762762168592784,-0.014657042054347782,0.547825861180261,0.06931137389769569,-0.002075658408712897,0.0007150660945082489,-0.0030248347835413526,-0.04851956792048796,0.044806981541565157,0.04966970359296391
-0.009075712110370514,0.030019663134302467,0.07888888219014369,8.997601374999999,0.08172208333333333,-3.726527,-0.002235811579959605,0.020807025046228375,0.0762762168592784,-0.014657042054347782,0.547825861180261,0.06931137389769569,-0.0015285163241263047,0.003963281422725951,-0.0011708180245906736,0.08213461931802499,0.028589628623924532,-0.08108895173490185
-0.006283185307179587,0.021642082724729686,0.08168140899333462,8.834157208333334,0.024516625,-3.563082833333333,-0.002235811579959605,0.020807025046228375,0.0762762168592784,-0.014657042054347782,0.547825861180261,0.06931137389769569,-0.001942291346892516,0.0012151974199722986,0.002928628972112459,-0.10982943333988715,0.03668963121869818,0.057596987970862816
-0.0020943951023931952,0.019547687622336492,0.07609635538695278,9.054806833333332,-0.04903325,-3.67749375,-0.002235811579959605,0.020807025046228375,0.0762762168592784,-0.014657042054347782,0.547825861180261,0.06931137389769569,-0.0024841074880789667,0.0037971967169768213,-0.0018323117317510561,0.09026892209647297,-0.00020854405638901847,-0.03241937016188416
0.0027925268031909274,0.01117010721276371,0.07958701389094143,8.87501825,-0.04903325,-3.6121160833333334,-0.002235811579959605,0.020807025046228375,0.0762762168592784,-0.014657042054347782,0.547825861180261,0.06931137389769569,-0.004166053476734379,0.0022721973177830144,0.0035267376779418483,-0.11815315766717667,-0.05729197712413335,0.07789620920947012
0.01117010721276371,0.006981317007977318,0.07330382858376185,9.112012291666666,0.06537766666666667,-3.7673880416666665,-0.002235811579959605,0.020807025046228375,0.0762762168592784,-0.014657042054347782,0.547825861180261,0.06931137389769569,-0.0004984950621954894,-0.007377511488848702,-0.005979117485913805,-0.05276313019386754,-0.12295941512490272,-0.007822229361799729
0.012566370614359173,0.020943951023931952,0.08517206749732328,9.218250999999999,0.3105439166666667,-3.751043625,-0.002235811579959605,0.020807025046228375,0.0762762168592784,-0.014657042054347782,0.547825861180261,0.06931137389769569,0.005803337542488162,-0.0013679112835344365,0.004445209609355314,0.07403663936534917,-0.016691335850950773,-0.015842035662504448
0.0006981317007977319,0.023736477827122883,0.07609635538695278,9.07115125,0.34323275000000003,-3.718354791666666,-0.002235811579959605,0.020807025046228375,0.0762762168592784,-0.014657042054347782,0.547825861180261,0.06931137389769569,0.00546887015229702,-0.002265605937030197,0.0038186492608501283,-0.04599859976578752,-0.7068160770016761,-0.36116819755772084
-0.013264502315156905,0.029321531433504733,0.07749261878854824,9.128356708333332,0.35140495833333335,-3.7346992083333332,-0.002235811579959605,0.020807025046228375,0.0762762168592784,-0.014657042054347782,0.547825861180261,0.06931137389769569,0.001338059295256515,0.000289780751770936,-0.0034205786661048263,0.0863510416915197,0.09398751402877846,-0.048265947324019357
-0.016057029118347832,0.028623399732707,0.08517206749732328,8.956740333333332,0.16344416666666667,-3.6366327083333334,-0.002235811579959605,0.020807025046228375,0.0762762168592784,-0.014657042054347782,0.547825861180261,0.06931137389769569,-0.0010317174758459576,0.0015326781510427345,0.0034284462511308222,-0.023974561761206645,0.08580567270672211,0.0414325541954036
-0.013962634015954637,0.025132741228718346,0.07819075048934597,9.005773583333333,-0.008172208333333333,-3.718354791666666,-0.002235811579959605,0.020807025046228375,0.0762762168592784,-0.014657042054347782,0.547825861180261,0.06931137389769569,-0.004686633041140066,0.003100266139580081,-0.001981193696948115,0.05762560817419366,0.007920059901087106,-0.060757939371736555
-0.0041887902047863905,0.01884955592153876,0.08237954069413235,8.891362666666666,-0.024516625,-3.5957716666666664,-0.002235811579959605,0.020807025046228375,0.0762762168592784,-0.014657042054347782,0.547825861180261,0.06931137389769569,-0.002915358856475824,0.002855303582559811,0.0012476962962051016,-0.0731821210304014,0.00807461100429107,0.03708839288281008
0.0013962634015954637,0.013264502315156905,0.07958701389094143,9.038462416666666,-0.04086104166666667,-3.6693215416666662,-0.002235811579959605,0.020807025046228375,0.0762762168592784,-0.014657042054347782,0.547825861180261,0.06931137389769569,-0.004163956630518187,0.0014471969166904113,0.0003188350901551176,0.012527293128290012,-0.02061026917987767,0.004401077456766232
0.009773843811168246,0.010471975511965976,0.07958701389094143,9.013945791666666,0.0,-3.67749375,-0.002235811579959605,0.020807025046228375,0.0762762168592784,-0.014657042054347782,0.547825861180261,0.06931137389769569,-0.0001444698839303873,-7.26352441899082e-05,0.0016528363353434652,-0.011851719984114252,-0.04942992443125795,0.04506561445240524
0.009773843811168246,0.009773843811168246,0.07609635538695278,9.038462416666666,0.0980665,-3.7673880416666665,-0.002235811579959605,0.020807025046228375,0.0762762168592784,-0.014657042054347782,0.547825861180261,0.06931137389769569,0.00042364331971635254,-0.0044202216994450655,-0.0016359703597543967,-0.12637375204379928,-0.08994681610420212,0.012617073888676677
0.009075712110370514,0.01815142422074103,0.07958701389094143,9.291800875,0.2778550833333333,-3.7919046666666665,-0.002235811579959605,0.020807025046228375,0.0762762168592784,-0.014657042054347782,0.547825861180261,0.06931137389769569,0.00606846794659596,-0.002630357355848774,0.0031917705810034884,0.08637423326750233,-0.01653770288562059,-0.04039015153881821
-0.0027925268031909274,0.023736477827122883,0.07400196028455958,9.1201845,0.3105439166666667,-3.7101825833333333,-0.002235811579959605,0.020807025046228375,0.0762762168592784,-0.014657042054347782,0.547825861180261,0.06931137389769569,0.006318026635543212,-0.0022224625774098154,-0.00116700966553649,0.008477029274316318,0.012137930094126512,0.012874050698441695
-0.016057029118347832,0.027925268031909273,0.07609635538695278,9.103840083333333,0.2860272916666666,-3.7346992083333332,-0.002235811579959605,0.020807025046228375,0.0762762168592784,-0.014657042054347782,0.547825861180261,0.06931137389769569,-0.0034558176319120764,-0.0005253501179460407,0.0024757173281376257,-0.019083150245995315,-0.5710426120763614,-0.3944508180986499
-0.013264502315156905,0.030019663134302467,0.07819075048934597,9.103840083333333,0.08989429166666667,-3.6856659583333333,-0.002235811579959605,0.020807025046228375,0.0762762168592784,-0.014657042054347782,0.547825861180261,0.06931137389769569,-0.001117435442692887,0.008821756904773078,0.0008491859635685097,0.10249621052546874,0.04075088794995767,-0.028046185447041343
-0.01117010721276371,0.012566370614359173,0.07609635538695278,8.899534874999999,0.008172208333333333,-3.6284604999999996,-0.002235811579959605,0.020807025046228375,0.0762762168592784,-0.014657042054347782,0.547825861180261,0.06931137389769569,-0.00324178463811326,-0.0017549463541206751,-0.002160417146255634,-0.06496836479018155,0.020374908502699695,-0.01202002111647011
-0.0041887902047863905,0.0153588974175501,0.08098327729253688,9.030290208333332,-0.032688833333333334,-3.6039438749999997,-0.002235811579959605,0.020807025046228375,0.0762762168592784,-0.014657042054347782,0.547825861180261,0.06931137389769569,-0.0021627815585829016,0.0014488787829644932,0.000679428371338661,0.024846473968551712,0.03262141749563669,0.012427316325232217
0.0,0.011868238913561441,0.07958701389094143,8.981256958333333,-0.0980665,-3.6284604999999996,-0.002235811579959605,0.020807025046228375,0.0762762168592784,-0.014657042054347782,0.547825861180261,0.06931137389769569,-0.0034844899852855948,0.0011228552669283207,0.0021291314181234914,-0.028146081322162567,-0.008333921778621278,0.020706174720003814
0.006981317007977318,0.009773843811168246,0.07539822368615504,9.038462416666666,-0.08172208333333333,-3.6693215416666662,-0.002235811579959605,0.020807025046228375,0.0762762168592784,-0.014657042054347782,0.547825861180261,0.06931137389769569,-0.0041803297244122125,-0.0002437758895240712,-1.880605634927797e-05,-0.09374863604820154,-0.0820434939064654,0.04523730108846676
0.0153588974175501,0.010471975511965976,0.07609635538695278,9.226423208333333,0.08172208333333333,-3.759215833333333,-0.002235811579959605,0.020807025046228375,0.0762762168592784,-0.014657042054347782,0.547825861180261,0.06931137389769569,0.00497040351210565,-0.007045406401232907,-0.002587541077085604,0.05358448354530491,-0.14722526546642217,-0.02010106085518477
0.004886921905584123,0.024434609527920613,0.08098327729253688,9.1201845,0.3759215833333333,-3.718354791666666,-0.002235811579959605,0.020807025046228375,0.0762762168592784,-0.014657042054347782,0.547825861180261,0.06931137389769569,0.004978591157447846,-0.0015924618758102335,0.0012438936219779473,0.03315439542415059,0.03245047348056781,-0.015647872611708056
-0.004886921905584123,0.02652900463031381,0.07888888219014369,9.054806833333332,0.3105439166666667,-3.6856659583333333,-0.002235811579959605,0.020807025046228375,0.0762762168592784,-0.014657042054347782,0.547825861180261,0.06931137389769569,0.0034501982086969636,-0.0007503609316015976,0.0013823583377937851,-0.0035008181501410976,0.02446688853127903,0.012896032302184782
-0.011868238913561441,0.027925268031909273,0.07609635538695278,9.062979041666667,0.26151066666666667,-3.7101825833333333,-0.002235811579959605,0.020807025046228375,0.0762762168592784,-0.014657042054347782,0.547825861180261,0.06931137389769569,0.0005373312085244968,-0.0028520818559240107,-0.001336353687089479,0.024995596877762257,0.09401524410752822,0.004707091761743015
-0.012566370614359173,0.03420845333908886,0.07958701389094143,9.013945791666666,0.07354987499999999,-3.718354791666666,-0.002235811579959605,0.020807025046228375,0.0762762168592784,-0.014657042054347782,0.547825861180261,0.06931137389769569,-0.0047380217782602525,0.005162037610915293,0.0023349393588212577,0.06525593488478114,-0.6299280304194119,-0.48616828842840304
-0.009773843811168246,0.023736477827122883,0.08028514559173915,8.858673833333333,0.008172208333333333,-3.505877375,-0.002235811579959605,0.020807025046228375,0.0762762168592784,-0.014657042054347782,0.547825861180261,0.06931137389769569,-0.0037276198432537526,0.0007440018499581039,-0.0014785673872671678,-0.04434661354416105,0.00377040337300738,0.033112850741366266
-0.0020943951023931952,0.02234021442552742,0.08377580409572781,8.948568125,0.0,-3.571255041666667,-0.002235811579959605,0.020807025046228375,0.0762762168592784,-0.014657042054347782,0.547825861180261,0.06931137389769569,-0.0036755899574674026,0.0043146400832381904,0.0028075112868344485,-0.03239779452371089,0.0774524455634659,0.024936061474958953
0.005585053606381855,0.013264502315156905,0.07819075048934597,9.013945791666666,-0.15527195833333335,-3.6202882916666663,-0.002235811579959605,0.020807025046228375,0.0762762168592784,-0.014657042054347782,0.547825861180261,0.06931137389769569,-0.004027353236154958,0.0038685231714533966,0.0032799395557640324,-0.07319299518695865,-0.073738532549097,0.028858612480019457
0.013264502315156905,0.004886921905584123,0.07190756518216637,9.161045541666667,-0.008172208333333333,-3.67749375,-0.002235811579959605,0.020807025046228375,0.0762762168592784,-0.014657042054347782,0.547825861180261,0.06931137389769569,0.0011888877137015102,-0.006239292697614852,-0.000628913682927099,0.004437016402994907,-0.1267028270190306,0.04922754443388102
0.01117010721276371,0.017453292519943295,0.07330382858376185,9.152873333333332,0.24516625,-3.77556025,-0.002235811579959605,0.020807025046228375,0.0762762168592784,-0.014657042054347782,0.547825861180261,0.06931137389769569,0.00285542856115144,-0.0033402668754942693,-0.00232455084036161,0.020997655173836144,-0.061606672633745474,-0.04440191763923355
0.004886921905584123,0.023736477827122883,0.07819075048934597,9.112012291666666,0.367749375,-3.6856659583333333,-0.002235811579959605,0.020807025046228375,0.0762762168592784,-0.014657042054347782,0.547825861180261,0.06931137389769569,0.005396549819781788,-0.0006620009972567233,0.0005425693757305945,-0.024167142532737156,0.02865093259604806,0.029202245149108495
-0.005585053606381855,0.025132741228718346,0.0767944870877505,9.161045541666667,0.3105439166666667,-3.742871416666666,-0.002235811579959605,0.020807025046228375,0.0762762168592784,-0.014657042054347782,0.547825861180261,0.06931137389769569,0.004852156510675376,-0.0008533919384335061,0.0010746020543666857,-0.01173049179164085,0.04899228518358443,-0.019903522484861345
-0.0153588974175501,0.02652900463031381,0.0747000919853573,9.185562166666665,0.21247741666666667,-3.702010375,-0.002235811579959605,0.020807025046228375,0.0762762168592784,-0.014657042054347782,0.547825861180261,0.06931137389769569,-0.001207370035394191,-0.003319980945327388,-0.002581097646134391,0.13528074939499057,0.08994445670435414,-0.027879806762854037
-0.013264502315156905,0.032812189937493394,0.08028514559173915,8.915879291666666,0.032688833333333334,-3.6448049166666663,-0.002235811579959605,0.020807025046228375,0.0762762168592784,-0.014657042054347782,0.547825861180261,0.06931137389769569,-0.0011206581406700705,0.0048133558054553926,0.001506847381492256,0.012913468518864296,0.012132109460303912,-0.040258810363531614
-0.010471975511965976,0.023038346126325153,0.07749261878854824,8.891362666666666,0.008172208333333333,-3.563082833333333,-0.002235811579959605,0.020807025046228375,0.0762762168592784,-0.014657042054347782,0.547825861180261,0.06931137389769569,-0.008566992194453,0.003434009578205668,0.0023362681748724397,-0.10516654194389692,-0.5936804870698402,-0.34784967506811176
-0.0013962634015954637,0.016057029118347832,0.07749261878854824,9.062979041666667,-0.10623870833333333,-3.6202882916666663,-0.002235811579959605,0.020807025046228375,0.0762762168592784,-0.014657042054347782,0.547825861180261,0.06931137389769569,-0.0054804290328325555,0.0009536968472189136,-4.826528411538516e-05,0.02496908614874758,-0.01656545243345008,0.024968622304520616
0.010471975511965976,0.013962634015954637,0.07749261878854824,9.013945791666666,-0.07354987499999999,-3.6693215416666662,-0.002235811579959605,0.020807025046228375,0.0762762168592784,-0.014657042054347782,0.547825861180261,0.06931137389769569,-0.0019094670607521778,0.0016886043708069075,0.0019322772774942535,-0.06497545260225668,-0.06965697624360777,0.05340715374228775
0.013962634015954637,0.010471975511965976,0.07400196028455958,9.144701125,0.06537766666666667,-3.77556025,-0.002235811579959605,0.020807025046228375,0.0762762168592784,-0.014657042054347782,0.547825861180261,0.06931137389769569,8.011221409398732e-05,-0.004985677998465448,-0.0047461934900499955,0.07375926848021677,-0.11878850936802725,-0.020177556710306195
0.013264502315156905,0.02024581932313422,0.08377580409572781,8.997601374999999,0.3023717083333333,-3.7346992083333332,-0.002235811579959605,0.020807025046228375,0.0762762168592784,-0.014657042054347782,0.547825861180261,0.06931137389769569,0.006857868892323197,-0.001821225518474906,0.0032478482357075887,-0.05245610364803743,-0.0126467973570799,0.0005982437357756965
0.0,0.023736477827122883,0.07749261878854824,9.103840083333333,0.32688833333333334,-3.7346992083333332,-0.002235811579959605,0.020807025046228375,0.0762762168592784,-0.014657042054347782,0.547825861180261,0.06931137389769569,0.0057339523290350705,0.000629193853637328,-0.0015938371325661417,-0.08535260445593944,-0.004122613201180993,0.033174525818399435
-0.01117010721276371,0.02234021442552742,0.08028514559173915,9.275456458333332,0.3350605416666666,-3.800076875,-0.002235811579959605,0.020807025046228375,0.0762762168592784,-0.014657042054347782,0.547825861180261,0.06931137389769569,0.002723343995105841,-0.004298690254364247,0.00017303230277618102,0.07395027913617129,0.03260368096505964,-0.07297834873322956
-0.017453292519943295,0.0307177948351002,0.08028514559173915,9.128356708333332,0.269682875,-3.6529771249999996,-0.002235811579959605,0.020807025046228375,0.0762762168592784,-0.014657042054347782,0.547825861180261,0.06931137389769569,0.0003737915864099694,0.0015379186924414328,0.0010592614665833526,0.1231421567235967,0.11858703162203534,-0.007518132413739985
-0.017453292519943295,0.02722713633111154,0.07819075048934597,8.883190458333333,0.032688833333333334,-3.6366327083333334,-0.002235811579959605,0.020807025046228375,0.0762762168592784,-0.014657042054347782,0.547825861180261,0.06931137389769569,-0.003266434985333208,0.005817565291841983,-0.0006945509919879793,-0.003639591552515067,0.04077309052734338,-0.019868526674641666
-0.01117010721276371,0.0153588974175501,0.08028514559173915,8.891362666666666,-0.04903325,-3.5957716666666664,-0.002235811579959605,0.020807025046228375,0.0762762168592784,-0.014657042054347782,0.547825861180261,0.06931137389769569,-0.0052521811996055845,0.0012285499362406165,0.0006741986382841183,-0.11820481742831024,0.07344817737263451,0.04117573644170022
-0.0006981317007977319,0.012566370614359173,0.07888888219014369,9.128356708333332,-0.196133,-3.67749375,-0.002235811579959605,0.020807025046228375,0.0762762168592784,-0.014657042054347782,0.547825861180261,0.06931137389769569,-0.008829489554346832,-0.00047546144650161714,0.001394528044423058,0.048402484864579445,-0.7644249964735387,-0.35069152401740356
0.00767944870877505,0.012566370614359173,0.07958701389094143,9.022118,0.024516625,-3.726527,-0.002235811579959605,0.020807025046228375,0.0762762168592784,-0.014657042054347782,0.547825861180261,0.06931137389769569,-0.0018289406558366144,-0.004013918960014629,0.005277520673030592,-0.028261503311374815,-0.06545779010870814,0.02066899201268818
0.01117010721276371,0.02024581932313422,0.06981317007977318,9.079323458333333,0.15527195833333335,-3.7673880416666665,-0.002235811579959605,0.020807025046228375,0.0762762168592784,-0.014657042054347782,0.547825861180261,0.06931137389769569,-7.051702820763259e-05,-0.00023807442846691167,-0.0029464270777704764,0.016877994959802353,-0.08181233859188634,-0.040419934702240805
0.01117010721276371,0.020943951023931952,0.07539822368615504,9.046634625,0.318716125,-3.6856659583333333,-0.002235811579959605,0.020807025046228375,0.0762762168592784,-0.014657042054347782,0.547825861180261,0.06931137389769569,0.00694737979212925,0.00011732469808529383,-0.0013301758815401432,-0.04855533724475812,-0.004195178252992968,0.02105362446304304
-0.0027925268031909274,0.02024581932313422,0.07819075048934597,9.144701125,0.32688833333333334,-3.726527,-0.002235811579959605,0.020807025046228375,0.0762762168592784,-0.014657042054347782,0.547825861180261,0.06931137389769569,0.00426650724317123,-0.003994757443397018,-0.00135111355730939,-0.060889068451643734,0.003972814874419086,0.0005605027856355567
-0.01117010721276371,0.027925268031909273,0.08098327729253688,9.26728425,0.318716125,-3.726527,-0.002235811579959605,0.020807025046228375,0.0762762168592784,-0.014657042054347782,0.547825861180261,0.06931137389769569,0.0032111833802745487,2.1617515626689678e-05,0.0003057330676376072,0.18839619913089004,0.07333161084984617,-0.06471695991793909
-0.017453292519943295,0.02722713633111154,0.08098327729253688,8.891362666666666,0.17161637500000002,-3.5957716666666664,-0.002235811579959605,0.020807025046228375,0.0762762168592784,-0.014657042054347782,0.547825861180261,0.06931137389769569,-0.0010070204463189017,0.003129944298268361,-0.002459531932426047,-0.04851540410377546,0.07353542288464834,0.06983313109991714
-0.0153588974175501,0.020943951023931952,0.08587019919812101,8.989429166666666,0.024516625,-3.7346992083333332,-0.002235811579959605,0.020807025046228375,0.0762762168592784,-0.014657042054347782,0.547825861180261,0.06931137389769569,-0.0004807056068993287,0.004029781255008939,0.004721042494060209,0.008561633858607663,0.04075875972594272,-0.10176450091892882
-0.014660765716752367,0.013264502315156905,0.0767944870877505,8.97308475,-0.057205458333333334,-3.530394,-0.002235811579959605,0.020807025046228375,0.0762762168592784,-0.014657042054347782,0.547825861180261,0.06931137389769569,-0.006068868720111793,-0.0010112568865907239,-0.0010195964144672192,-0.10576130851598749,0.016238281860041934,0.08213487311953037
-0.0020943951023931952,0.014660765716752367,0.07888888219014369,9.185562166666665,-0.08989429166666667,-3.693838166666666,-0.002235811579959605,0.020807025046228375,0.0762762168592784,-0.014657042054347782,0.547825861180261,0.06931137389769569,-0.004850336638570601,0.0007571448592933087,0.0021388746828143253,0.06979959583308316,-0.0002027456873846497,0.020713686123055755
0.006981317007977318,0.012566370614359173,0.0747000919853573,9.046634625,-0.08989429166666667,-3.7346992083333332,-0.002235811579959605,0.020807025046228375,0.0762762168592784,-0.014657042054347782,0.547825861180261,0.06931137389769569,-0.006889059026500722,-0.0031721301658114358,0.003210368706260238,0.0004050081589111411,-0.7799572993821869,-0.37048044432464866
0.011868238913561441,0.017453292519943295,0.07260569688296412,9.062979041666667,0.16344416666666667,-3.742871416666666,-0.002235811579959605,0.020807025046228375,0.0762762168592784,-0.014657042054347782,0.547825861180261,0.06931137389769569,-0.001384875927926556,-0.004617319420535832,-0.002800784420545176,-0.01594435823716713,-0.06131150571568121,-0.02408087905235601
0.014660765716752367,0.02652900463031381,0.07819075048934597,9.095667875,0.2860272916666666,-3.693838166666666,-0.002235811579959605,0.020807025046228375,0.0762762168592784,-0.014657042054347782,0.547825861180261,0.06931137389769569,0.00940332873021285,0.0014656200150110004,-0.0037527851763767424,-0.04442030619032577,-0.10246678814809444,0.01695863608946111
-0.0041887902047863905,0.023038346126325153,0.08656833089891874,9.185562166666665,0.4903325,-3.726527,-0.002235811579959605,0.020807025046228375,0.0762762168592784,-0.014657042054347782,0.547825861180261,0.06931137389769569,0.005197164089662209,-0.0066630472250579255,0.0012492154159245855,-0.011647856748777422,0.09778790254376761,0.0047174189255401846
-0.014660765716752367,0.03630284844148206,0.08377580409572781,9.210078791666666,0.29419949999999995,-3.7346992083333332,-0.002235811579959605,0.020807025046228375,0.0762762168592784,-0.014657042054347782,0.547825861180261,0.06931137389769569,0.003118743921618608,0.0033153960894317697,0.00431013049620049,0.11881684021880926,0.11843924830783116,-0.06878273849786408
-0.02024581932313422,0.029321531433504733,0.07539822368615504,8.97308475,0.057205458333333334,-3.5957716666666664,-0.002235811579959605,0.020807025046228375,0.0762762168592784,-0.014657042054347782,0.547825861180261,0.06931137389769569,-0.004191143251182496,0.00033669682481438,-0.0011774152464266506,0.021164494049697842,0.036842204235987455,0.05384554015946331
-0.012566370614359173,0.028623399732707,0.07819075048934597,8.932223708333334,-0.016344416666666667,-3.702010375,-0.002235811579959605,0.020807025046228375,0.0762762168592784,-0.014657042054347782,0.547825861180261,0.06931137389769569,-0.0035009929098991145,0.004431633706174272,0.0028770119559125853,-0.007839049549077175,0.016268202789535502,-0.07722632303781318
-0.004886921905584123,0.019547687622336492,0.07260569688296412,8.948568125,-0.04903325,-3.546738416666667,-0.002235811579959605,0.020807025046228375,0.0762762168592784,-0.014657042054347782,0.547825861180261,0.06931137389769569,-0.005306494034181565,-0.0005317857939596301,-0.0011795728118602648,-0.1302481429860104,0.03681731699195253,0.13533771721642862
0.005585053606381855,0.02024581932313422,0.0747000919853573,9.210078791666666,-0.122583125,-3.8164212916666664,-0.002235811579959605,0.020807025046228375,0.0762762168592784,-0.014657042054347782,0.547825861180261,0.06931137389769569,-0.004550059864592593,-0.0014658922061631793,0.00037853273506449614,0.020875702081567735,-0.024591768526334854,-0.03227985158627138
0.014660765716752367,0.023038346126325153,0.07400196028455958,9.16921775,-0.07354987499999999,-3.751043625,-0.002235811579959605,0.020807025046228375,0.0762762168592784,-0.014657042054347782,0.547825861180261,0.06931137389769569,-0.0009220457075582899,-0.0056344232928979285,-8.213088032278746e-05,-0.007764847232724747,-0.0778490938814923,0.03345097321983161
0.016057029118347832,0.03420845333908886,0.0747000919853573,9.185562166666665,0.08172208333333333,-3.8164212916666664,-0.002235811579959605,0.020807025046228375,0.0762762168592784,-0.014657042054347782,0.547825861180261,0.06931137389769569,-0.0027370928364132455,-0.0017612616106751423,0.0004386642848190677,0.11461375280761198,-0.8384307319305487,-0.4423038289485029
0.012566370614359173,0.03420845333908886,0.08587019919812101,8.97308475,0.4739880833333333,-3.67749375,-0.002235811579959605,0.020807025046228375,0.0762762168592784,-0.014657042054347782,0.547825861180261,0.06931137389769569,0.010395973895945683,0.0020486367373256324,0.005084830011538113,-0.15896298166476655,0.04468718781154709,0.07025126781362605
-0.008377580409572781,0.030019663134302467,0.07609635538695278,9.291800875,0.3840937916666667,-3.8164212916666664,-0.002235811579959605,0.020807025046228375,0.0762762168592784,-0.014657042054347782,0.547825861180261,0.06931137389769569,0.00395990808150441,-0.0038010965802090244,-0.0030825308260205913,0.16418228710822177,0.04479782675373736,-0.109538149027171
-0.016755160819145562,0.03700098014227979,0.08237954069413235,8.964912541666667,0.29419949999999995,-3.5957716666666664,-0.002235811579959605,0.020807025046228375,0.0762762168592784,-0.014657042054347782,0.547825861180261,0.06931137389769569,0.0022461249799029127,0.00504348233664121,0.0017175795836796663,0.02903577729579918,0.21241577937298228,0.008800897425391597
-0.020943951023931952,0.02652900463031381,0.07888888219014369,8.907707083333333,-0.13075533333333333,-3.6121160833333334,-0.002235811579959605,0.020807025046228375,0.0762762168592784,-0.014657042054347782,0.547825861180261,0.06931137389769569,-0.0028921547443831962,0.004123322335948097,0.0007708555114916733,-0.04048807598536488,-0.012192304962984981,-0.0035724656515275575
-0.014660765716752367,0.01815142422074103,0.07749261878854824,8.989429166666666,-0.10623870833333333,-3.6039438749999997,-0.002235811579959605,0.020807025046228375,0.0762762168592784,-0.014657042054347782,0.547825861180261,0.06931137389769569,-0.010007162937714708,0.0002900322615311264,-0.0012543936349244831,-0.03623241356675121,0.020440332592900245,0.012726566909333107
0.005585053606381855,0.017453292519943295,0.08028514559173915,9.062979041666667,-0.14709974999999997,-3.6284604999999996,-0.002235811579959605,0.020807025046228375,0.0762762168592784,-0.014657042054347782,0.547825861180261,0.06931137389769569,-0.0037626726932814135,-0.0012073267096773337,0.0023599545079326764,-0.1589081161416199,-0.02492596767413623,0.08611162971908039
0.012566370614359173,0.019547687622336492,0.07539822368615504,9.381695166666667,-0.0980665,-3.800076875,-0.002235811579959605,0.020807025046228375,0.0762762168592784,-0.014657042054347782,0.547825861180261,0.06931137389769569,-0.0032742814013735915,-0.007139551085110578,-0.0028607964908626085,0.15983308012897268,-0.15552309705312117,-0.04437706386472499
0.019547687622336492,0.033510321638291124,0.08168140899333462,9.062979041666667,0.21247741666666667,-3.7101825833333333,-0.002235811579959605,0.020807025046228375,0.0762762168592784,-0.014657042054347782,0.547825861180261,0.06931137389769569,0.005563134355789232,0.00210464065716021,0.0025948253848145824,0.02089951852939008,-0.09020210967628732,0.0007831045559479951
0.00767944870877505,0.029321531433504733,0.0767944870877505,9.022118,0.392266,-3.7101825833333333,-0.002235811579959605,0.020807025046228375,0.0762762168592784,-0.014657042054347782,0.547825861180261,0.06931137389769569,0.00829170277416865,-0.0022620811895456526,-0.00025129750749381454,-0.09753835890167414,-0.0042059379348662294,0.03349282082438072
-0.008377580409572781,0.033510321638291124,0.07749261878854824,9.218250999999999,0.4004382083333333,-3.77556025,-0.002235811579959605,0.020807025046228375,0.0762762168592784,-0.014657042054347782,0.547825861180261,0.06931137389769569,0.0008909113513557201,0.001989635901263145,0.007694704584921266,0.15930588217456054,-0.541856890058395,-0.43856779054902256
-0.01815142422074103,0.02722713633111154,0.07400196028455958,8.891362666666666,0.2778550833333333,-3.6366327083333334,-0.002235811579959605,0.020807025046228375,0.0762762168592784,-0.014657042054347782,0.547825861180261,0.06931137389769569,-0.0003698926665542943,0.0023863571523196586,-0.0012447556485055858,-0.11388518132033865,0.21256803109740868,0.037234071234194685
-0.016755160819145562,0.02234021442552742,0.0767944870877505,9.1201845,-0.14709974999999997,-3.7101825833333333,-0.002235811579959605,0.020807025046228375,0.0762762168592784,-0.014657042054347782,0.547825861180261,0.06931137389769569,-0.004500451054725511,0.0013081263607492076,0.0014452606970858017,0.041197462619588544,0.06133491791809526,-0.028044354067787068
-0.008377580409572781,0.019547687622336492,0.07400196028455958,9.038462416666666,-0.269682875,-3.6529771249999996,-0.002235811579959605,0.020807025046228375,0.0762762168592784,-0.014657042054347782,0.547825861180261,0.06931137389769569,-0.008452306976327298,-0.0034836625791752826,0.0021383414948067626,-0.19159889766406402,-0.09798553978101396,0.11493993521389252
0.009075712110370514,0.02583087292951608,0.06981317007977318,9.422556208333333,-0.07354987499999999,-3.881798958333333,-0.002235811579959605,0.020807025046228375,0.0762762168592784,-0.014657042054347782,0.547825861180261,0.06931137389769569,-0.004705122351595869,-0.012905355027763592,-0.003761584439831793,-0.10953355481560888,-0.1717312391915367,0.017196505494025547
0.01815142422074103,0.05166174585903216,0.07749261878854824,9.643205833333333,0.269682875,-3.9144877916666663,-0.002235811579959605,0.020807025046228375,0.0762762168592784,-0.014657042054347782,0.547825861180261,0.06931137389769569,0.00803672772688104,-0.01720521321132382,0.003776103857668388,0.21327486376436652,-0.07367658183040525,0.046535811619463956
0.0020943951023931952,0.08587019919812101,0.07051130178057091,9.218250999999999,0.416782625,-4.004382083333333,-0.002235811579959605,0.020807025046228375,0.0762762168592784,-0.014657042054347782,0.547825861180261,0.06931137389769569,0.010052520738805752,0.006786009195974283,0.003360442813732015,0.307470675125746,0.08993862272767075,-0.21887201220671498
-0.01815142422074103,0.07190756518216637,0.0635299847725936,8.605335375,0.23699404166666665,-3.563082833333333,-0.002235811579959605,0.020807025046228375,0.0762762168592784,-0.014657042054347782,0.547825861180261,0.06931137389769569,0.0013498786560585908,0.010324855228209107,-0.005397626383470721,-0.05637177688085579,0.00846495899066705,-0.010952960553365037
-0.02024581932313422,0.050963614158234416,0.0747000919853573,8.719746291666667,0.220649625,-3.538566208333333,-0.002235811579959605,0.020807025046228375,0.0762762168592784,-0.014657042054347782,0.547825861180261,0.06931137389769569,-0.002633973248685268,0.007250294204778309,-0.0011873417295461231,-0.00345981842957996,0.17576313329794263,0.02947756084914047
-0.0153588974175501,0.03630284844148206,0.0767944870877505,8.7279185,-0.13075533333333333,-3.5957716666666664,-0.002235811579959605,0.020807025046228375,0.0762762168592784,-0.014657042054347782,0.547825861180261,0.06931137389769569,-0.007072566457507973,0.00605270565088206,-0.008252500819551192,-0.17517070512762095,-0.14734217267833996,0.07009406371294293
-0.0006981317007977319,0.023736477827122883,0.09354964790689606,9.079323458333333,0.16344416666666667,-3.7346992083333332,-0.002235811579959605,0.020807025046228375,0.0762762168592784,-0.014657042054347782,0.547825861180261,0.06931137389769569,-0.008048577744063267,-0.010766280765008645,0.005596465232375331,-0.02942862782071478,-0.5540519466454763,-0.3991669574828502
0.0041887902047863905,0.041887902047863905,0.08936085770210968,9.095667875,0.0980665,-3.6611493333333334,-0.002235811579959605,0.020807025046228375,0.0762762168592784,-0.014657042054347782,0.547825861180261,0.06931137389769569,0.001800438090368766,0.0028331141002249437,0.0060292957827111976,0.074035852091367,0.04468323073743886,-0.06448499368997643
0.0006981317007977319,0.03560471674068433,0.0767944870877505,8.948568125,0.008172208333333333,-3.530394,-0.002235811579959605,0.020807025046228375,0.0762762168592784,-0.014657042054347782,0.547825861180261,0.06931137389769569,-0.0010905575146669191,0.006559589286656587,0.0052091498255439975,0.04147617758450317,-0.04491016439013723,-0.08913704673019546
0.0027925268031909274,0.02234021442552742,0.06702064327658225,8.866846041666665,0.0980665,-3.3506054166666663,-0.002235811579959605,0.020807025046228375,0.0762762168592784,-0.014657042054347782,0.547825861180261,0.06931137389769569,-0.0015048440196237494,0.0075327189725246674,-0.0029854545831850226,-0.12224838683925295,0.11039471108141762,0.08607301703223824
